,Trial,Instruction,Food,Choice,Liking,Taste,Health,preLiking,subj_idx,rt,response,Taste_centered,Health_centered,preLiking_centered
0,1,Respond Naturally,DriedHerring_1_1fish.jpg,-2.0,1,1,6,1.0,104,1.190808211609692,0.0,-2.2897777777777777,2.445,-2.2686250418854015
1,2,Respond Naturally,Triscuit_5_30crackers.jpg,-1.0,1,1,6,1.0,104,1.5485761742893374,0.0,-2.2897777777777777,2.445,-2.2686250418854015
2,3,Respond Naturally,OatmealSquares_3_2tbsp.jpg,-2.0,1,1,3,1.0,104,1.3224977633763046,0.0,-2.2897777777777777,-0.5550000000000002,-2.2686250418854015
3,4,Respond Naturally,SevenGrain_3_5.jpg,-2.0,1,1,6,3.0,104,1.2401205181304251,0.0,-2.2897777777777777,2.445,-0.2686250418854015
4,5,Respond Naturally,IceCreamVanilla_1_2tsp.jpg,2.0,5,6,1,5.0,104,0.9082346454270008,1.0,2.7102222222222223,-2.555,1.7313749581145985
5,6,Respond Naturally,Tuna_4_1can.jpg,-2.0,1,1,6,2.0,104,1.004629764258425,0.0,-2.2897777777777777,2.445,-1.2686250418854015
6,7,Respond Naturally,OatBran_4_1bowl.jpg,-2.0,1,4,6,1.0,104,0.8657533723235247,0.0,0.7102222222222223,2.445,-2.2686250418854015
7,8,Respond Naturally,Orange_5_2orange.jpg,-2.0,1,2,6,1.0,104,1.4852753596387631,0.0,-1.2897777777777777,2.445,-2.2686250418854015
8,9,Respond Naturally,Reese_1_1Cup.jpg,-1.0,1,1,1,1.0,104,1.2834377090148337,0.0,-2.2897777777777777,-2.555,-2.2686250418854015
9,10,Respond Naturally,FruitCrisps_1_0.5bar.jpg,-2.0,1,1,1,1.0,104,0.5866129991482012,0.0,-2.2897777777777777,-2.555,-2.2686250418854015
10,11,Respond Naturally,RiceKrispiesCereal_7_2cups.jpg,-2.0,1,2,1,2.0,104,1.0334158987461706,0.0,-1.2897777777777777,-2.555,-1.2686250418854015
11,12,Respond Naturally,Tuna_2_1T.jpg,-2.0,1,1,6,1.0,104,0.6465345049873576,0.0,-2.2897777777777777,2.445,-2.2686250418854015
12,13,Respond Naturally,Mentos_2_3pc.jpg,1.0,6,5,1,3.0,104,0.9356639815814559,1.0,1.7102222222222223,-2.555,-0.2686250418854015
13,14,Respond Naturally,AllBranCereal_6_1cup.jpg,-2.0,1,2,6,1.0,104,0.6695846811489901,0.0,-1.2897777777777777,2.445,-2.2686250418854015
14,15,Respond Naturally,EnglishCucumber_5_0.5cuc.JPG,1.0,5,4,6,4.0,104,0.8066261594358366,1.0,0.7102222222222223,2.445,0.7313749581145985
15,16,Decrease Desire,NatureValleyChocolate_1_0.25bar.jpg,1.0,4,5,1,4.0,104,1.095310592492751,1.0,1.7102222222222223,-2.555,0.7313749581145985
16,17,Decrease Desire,SlimStyles_2_2Tbsp.jpg,1.0,3,1,2,1.0,104,0.9041978924142312,1.0,-2.2897777777777777,-1.5550000000000002,-2.2686250418854015
17,18,Decrease Desire,FrozenBlueberries_1_1tbsp.jpg,-2.0,1,1,6,1.0,104,1.1608819559769472,0.0,-2.2897777777777777,2.445,-2.2686250418854015
18,19,Decrease Desire,FrozenOkra_5_0.5box.jpg,-2.0,1,1,6,1.0,104,1.013904688268667,0.0,-2.2897777777777777,2.445,-2.2686250418854015
19,20,Decrease Desire,Mars_2_0.5Bar.jpg,-2.0,1,1,1,3.0,104,0.8842718591658922,0.0,-2.2897777777777777,-2.555,-0.2686250418854015
20,21,Decrease Desire,Celery_4_0.5bunch.jpg,-2.0,1,1,6,1.0,104,0.760554317264905,0.0,-2.2897777777777777,2.445,-2.2686250418854015
21,22,Decrease Desire,ProMax_4_1bar.jpg,-2.0,1,1,1,1.0,104,0.7689209076961561,0.0,-2.2897777777777777,-2.555,-2.2686250418854015
22,23,Decrease Desire,WaterChestnuts_5_0.5can.jpg,-2.0,1,1,6,1.0,104,1.6640420216863276,0.0,-2.2897777777777777,2.445,-2.2686250418854015
23,24,Decrease Desire,HoneyNutCheerios_5_2cup.jpg,-2.0,1,1,3,1.0,104,0.9535059224144788,0.0,-2.2897777777777777,-0.5550000000000002,-2.2686250418854015
24,25,Decrease Desire,Prunes_2_3.jpg,-2.0,1,1,6,1.0,104,0.7851015617306984,0.0,-2.2897777777777777,2.445,-2.2686250418854015
25,26,Decrease Desire,Pringles_5_40Chips.jpg,1.0,4,5,1,3.0,104,0.8709060128458077,1.0,1.7102222222222223,-2.555,-0.2686250418854015
26,27,Decrease Desire,VegetableThins_5_25Chips.jpg,-2.0,1,1,6,1.0,104,0.7265750578335428,0.0,-2.2897777777777777,2.445,-2.2686250418854015
27,28,Decrease Desire,SlimStyles_6_2c.jpg,1.0,1,5,3,4.0,104,0.7363280971585482,1.0,1.7102222222222223,-0.5550000000000002,0.7313749581145985
28,29,Decrease Desire,Broccoli_4_1.5c.jpg,1.0,4,1,6,6.0,104,0.7213140787134762,1.0,-2.2897777777777777,2.445,2.7313749581145985
29,30,Decrease Desire,HoneyNutCheerios_2_2tbsp.jpg,-2.0,1,1,1,1.0,104,0.6006066391055356,0.0,-2.2897777777777777,-2.555,-2.2686250418854015
30,31,Focus on Healthiness,SpeltCakes_2_0.5.jpg,-2.0,1,2,1,1.0,104,1.2177548708168615,0.0,-1.2897777777777777,-2.555,-2.2686250418854015
31,32,Focus on Healthiness,SlicedTurkey_5_4slices.jpg,1.0,5,6,1,5.0,104,1.2884355393944134,1.0,2.7102222222222223,-2.555,1.7313749581145985
32,33,Focus on Healthiness,Raspberries_4_.5c.jpg,-2.0,1,2,6,1.0,104,0.9668270077854686,0.0,-1.2897777777777777,2.445,-2.2686250418854015
33,34,Focus on Healthiness,CannedArtichoke_2_2.jpg,-2.0,1,1,6,1.0,104,0.8281179704645183,0.0,-2.2897777777777777,2.445,-2.2686250418854015
34,35,Focus on Healthiness,Avocado_5_1avacado.jpg,-1.0,1,1,6,3.0,104,1.4279519843366868,0.0,-2.2897777777777777,2.445,-0.2686250418854015
35,36,Focus on Healthiness,VanillaGreekYogurt_2_1spoon.jpg,1.0,1,1,1,1.0,104,1.0603038270346588,1.0,-2.2897777777777777,-2.555,-2.2686250418854015
36,37,Focus on Healthiness,Raspberries_5_.5bag.jpg,-2.0,1,1,1,1.0,104,0.661814238086663,0.0,-2.2897777777777777,-2.555,-2.2686250418854015
37,38,Focus on Healthiness,PopTartStrawberry_2_0.5tart.jpg,-2.0,1,4,2,2.0,104,1.4636204705202545,0.0,0.7102222222222223,-1.5550000000000002,-1.2686250418854015
38,39,Focus on Healthiness,LuckyCharms_3_2tbsps.jpg,-2.0,1,1,1,1.0,104,1.4396488461097758,0.0,-2.2897777777777777,-2.555,-2.2686250418854015
39,40,Focus on Healthiness,RedPepper_2_2pc.jpg,-2.0,1,1,6,1.0,104,1.2817561800038677,0.0,-2.2897777777777777,2.445,-2.2686250418854015
40,41,Focus on Healthiness,DriedApricots_5_0.75cup.jpg,-2.0,1,2,3,1.0,104,0.7564477143678232,0.0,-1.2897777777777777,-0.5550000000000002,-2.2686250418854015
41,42,Focus on Healthiness,AllBranBar_3_1bar.jpg,-2.0,1,1,6,1.0,104,1.1458705034492596,0.0,-2.2897777777777777,2.445,-2.2686250418854015
42,43,Focus on Healthiness,JuniorMints_2_9pc.jpg,-1.0,1,4,1,2.0,104,1.668751614386565,0.0,0.7102222222222223,-2.555,-1.2686250418854015
43,44,Focus on Healthiness,SkimMilk_1_1Tbsp.jpg,-2.0,1,1,6,2.0,104,0.8974424109110258,0.0,-2.2897777777777777,2.445,-1.2686250418854015
44,45,Focus on Healthiness,FrozenCorn_4_2cups.jpg,-2.0,1,1,5,1.0,104,0.7399257937649963,0.0,-2.2897777777777777,1.4449999999999998,-2.2686250418854015
45,46,Decrease Desire,CornFlakes_3_2tbsps.jpg,-2.0,1,2,1,1.0,104,0.6100460667112202,0.0,-1.2897777777777777,-2.555,-2.2686250418854015
46,47,Decrease Desire,Aero_1_1pc.jpg,2.0,6,5,1,6.0,104,0.6417262671493518,1.0,1.7102222222222223,-2.555,2.7313749581145985
47,48,Decrease Desire,TofuDessert_4_1pck.jpg,-2.0,1,1,5,,104,0.6962795956787886,0.0,-2.2897777777777777,1.4449999999999998,
48,49,Decrease Desire,Celery_2_1stalk.jpg,-2.0,5,1,6,1.0,104,0.6027762619851273,0.0,-2.2897777777777777,2.445,-2.2686250418854015
49,50,Decrease Desire,YorkPeppermintPatties_4_12.jpg,-2.0,4,6,1,5.0,104,0.5708756780441036,0.0,2.7102222222222223,-2.555,1.7313749581145985
50,51,Decrease Desire,Almonds_2_10.jpg,-2.0,1,2,6,1.0,104,1.0869032325390435,0.0,-1.2897777777777777,2.445,-2.2686250418854015
51,52,Decrease Desire,MangoChunks_2_3.jpg,2.0,1,2,6,1.0,104,1.6183459433741518,1.0,-1.2897777777777777,2.445,-2.2686250418854015
52,53,Decrease Desire,HersheysKisses_2_5.jpg,2.0,6,5,1,6.0,104,0.6131043511595635,1.0,1.7102222222222223,-2.555,2.7313749581145985
53,54,Decrease Desire,FibreBrownies_3_2bars.jpg,-1.0,1,5,4,2.0,104,1.7330192084300506,0.0,1.7102222222222223,0.44499999999999984,-1.2686250418854015
54,55,Decrease Desire,AppleChips_5_1c..jpg,-2.0,1,1,1,1.0,104,0.9663640028484224,0.0,-2.2897777777777777,-2.555,-2.2686250418854015
55,56,Decrease Desire,FrozenPeaches_2_3Slices.jpg,2.0,1,1,6,4.0,104,0.863326302729547,1.0,-2.2897777777777777,2.445,0.7313749581145985
56,57,Decrease Desire,HersheysKisses_3_15.jpg,2.0,6,5,1,4.0,104,1.1500900065620954,1.0,1.7102222222222223,-2.555,0.7313749581145985
57,58,Decrease Desire,FrozenOkra_2_2pc.jpg,-2.0,1,1,6,1.0,104,0.6123377130643348,0.0,-2.2897777777777777,2.445,-2.2686250418854015
58,59,Decrease Desire,CornFlakes_6_2cups.jpg,-2.0,1,1,6,1.0,104,0.5650350874493597,0.0,-2.2897777777777777,2.445,-2.2686250418854015
59,60,Decrease Desire,BabyFoodCarrots_5_1jar.jpg,-2.0,1,1,1,1.0,104,1.2583310952832107,0.0,-2.2897777777777777,-2.555,-2.2686250418854015
60,61,Focus on Healthiness,FrozenPeas_2_2tbsp.jpg,-2.0,1,1,1,1.0,104,1.4103164570333317,0.0,-2.2897777777777777,-2.555,-2.2686250418854015
61,62,Focus on Healthiness,PopTartStrawberry_5_3tarts.jpg,-2.0,1,1,1,1.0,104,0.8203823097901477,0.0,-2.2897777777777777,-2.555,-2.2686250418854015
62,63,Focus on Healthiness,DriedApricots_2_2.jpg,-2.0,1,1,1,1.0,104,0.9391687350798748,0.0,-2.2897777777777777,-2.555,-2.2686250418854015
63,64,Focus on Healthiness,Strawberries_2_0.5c.jpg,2.0,1,1,6,2.0,104,1.7489449816712297,1.0,-2.2897777777777777,2.445,-1.2686250418854015
64,65,Focus on Healthiness,CheeseNips_5_1c.jpg,-2.0,1,1,1,1.0,104,1.0484957756489166,0.0,-2.2897777777777777,-2.555,-2.2686250418854015
65,66,Focus on Healthiness,SlicedTurkey_2_0.5slice.jpg,-1.0,1,5,3,5.0,104,1.2513033417890256,0.0,1.7102222222222223,-0.5550000000000002,1.7313749581145985
66,67,Focus on Healthiness,FrozenCorn_2_0.5cup.jpg,-2.0,1,1,6,3.0,104,0.8854989362880588,0.0,-2.2897777777777777,2.445,-0.2686250418854015
67,68,Focus on Healthiness,Asparagus_3_7.jpg,-2.0,1,1,6,1.0,104,1.412586150563584,0.0,-2.2897777777777777,2.445,-2.2686250418854015
68,69,Focus on Healthiness,Asparagus_6_FullPack.jpg,-2.0,1,1,6,1.0,104,2.5272209269096493,0.0,-2.2897777777777777,2.445,-2.2686250418854015
69,70,Focus on Healthiness,AlmondMilk_4_1glass.jpg,-2.0,1,1,1,4.0,104,0.9796103916087304,0.0,-2.2897777777777777,-2.555,0.7313749581145985
70,71,Focus on Healthiness,Avocado_2_2pc.jpg,-2.0,1,1,6,3.0,104,1.3433728997260914,0.0,-2.2897777777777777,2.445,-0.2686250418854015
71,72,Focus on Healthiness,LuckyCharms_6_1cup.jpg,-2.0,1,2,1,1.0,104,2.1282053255854407,0.0,-1.2897777777777777,-2.555,-2.2686250418854015
72,73,Focus on Healthiness,CheeseNips_2_5nips.jpg,-2.0,1,1,1,1.0,104,1.2422841538827925,0.0,-2.2897777777777777,-2.555,-2.2686250418854015
73,74,Focus on Healthiness,MnMPlain_3_1tbsp.jpg,-2.0,1,4,1,1.0,104,2.0509003222214237,0.0,0.7102222222222223,-2.555,-2.2686250418854015
74,75,Focus on Healthiness,Beets_5_1can.jpg,-2.0,1,1,6,1.0,104,1.8634759810520336,0.0,-2.2897777777777777,2.445,-2.2686250418854015
75,76,Respond Naturally,BBQCrisps_6_1cup.jpg,-2.0,1,1,1,1.0,104,1.2214720249794482,0.0,-2.2897777777777777,-2.555,-2.2686250418854015
76,77,Respond Naturally,IcebergLettuce_4_8leaves.jpg,2.0,3,4,6,5.0,104,2.247981623495434,1.0,0.7102222222222223,2.445,1.7313749581145985
77,78,Respond Naturally,PureFit_4_2Bars.jpg,-1.0,1,2,6,1.0,104,1.2029267385914864,0.0,-1.2897777777777777,2.445,-2.2686250418854015
78,79,Respond Naturally,RiceKrispiesCereal_3_2tbsp.jpg,-2.0,1,1,1,1.0,104,1.026092209827766,0.0,-2.2897777777777777,-2.555,-2.2686250418854015
79,80,Respond Naturally,OatBran_2_2T.jpg,-2.0,4,1,6,1.0,104,1.2296447463486402,0.0,-2.2897777777777777,2.445,-2.2686250418854015
80,81,Respond Naturally,Reese_4_5Cup.jpg,2.0,1,1,1,1.0,104,1.4751066422395525,1.0,-2.2897777777777777,-2.555,-2.2686250418854015
81,82,Respond Naturally,Orange_1_0.25orange.jpg,-2.0,1,1,6,2.0,104,0.6539924767384946,0.0,-2.2897777777777777,2.445,-1.2686250418854015
82,83,Respond Naturally,MnMPeanuts_4_45.jpg,-2.0,1,1,1,3.0,104,2.8630067038757256,0.0,-2.2897777777777777,-2.555,-0.2686250418854015
83,84,Respond Naturally,BrusselsSprouts_4_1Box.jpg,2.0,4,1,5,5.0,104,1.8607381507499667,1.0,-2.2897777777777777,1.4449999999999998,1.7313749581145985
84,85,Respond Naturally,SevenGrain_1_1.jpg,-2.0,1,1,5,1.0,104,0.6826411922702391,0.0,-2.2897777777777777,1.4449999999999998,-2.2686250418854015
85,86,Respond Naturally,Smartfood_4_100Chips.jpg,-1.0,1,4,6,5.0,104,1.940449696394353,0.0,0.7102222222222223,2.445,1.7313749581145985
86,87,Respond Naturally,Butternut_7_2cups.jpg,-2.0,1,2,6,1.0,104,2.6156639929831726,0.0,-1.2897777777777777,2.445,-2.2686250418854015
87,88,Respond Naturally,FruitCrisps_3_2bars.jpg,-2.0,1,1,1,1.0,104,1.002619798251544,0.0,-2.2897777777777777,-2.555,-2.2686250418854015
88,89,Respond Naturally,KashiBars_4_3bars.jpg,-2.0,1,1,6,1.0,104,0.9662730554482549,0.0,-2.2897777777777777,2.445,-2.2686250418854015
89,90,Respond Naturally,Cheerios_5_2c.jpg,-2.0,1,1,5,1.0,104,0.79846170601013,0.0,-2.2897777777777777,1.4449999999999998,-2.2686250418854015
90,91,Decrease Desire,FrozenBlueberries_3_1cup.jpg,-2.0,1,1,5,1.0,104,1.5747405148140388,0.0,-2.2897777777777777,1.4449999999999998,-2.2686250418854015
91,92,Decrease Desire,Almonds_4_40.jpg,-1.0,1,5,6,1.0,104,1.0747607570265243,0.0,1.7102222222222223,2.445,-2.2686250418854015
92,93,Decrease Desire,RitzCrackers_5_15Crackers.jpg,-2.0,1,1,1,2.0,104,2.258465378123219,0.0,-2.2897777777777777,-2.555,-1.2686250418854015
93,94,Decrease Desire,FrozenPeaches_5_1.5Cups.jpg,-2.0,1,1,1,5.0,104,1.4774253732430225,0.0,-2.2897777777777777,-2.555,1.7313749581145985
94,95,Decrease Desire,RitzCrackers_2_3Crackers.jpg,-2.0,1,1,1,1.0,104,1.123791953406908,0.0,-2.2897777777777777,-2.555,-2.2686250418854015
95,96,Decrease Desire,Mars_4_2Bars.jpg,-2.0,1,1,1,1.0,104,0.7052121127126156,0.0,-2.2897777777777777,-2.555,-2.2686250418854015
96,97,Decrease Desire,Pringles_2_3Chips.jpg,-1.0,5,6,1,3.0,104,1.2347606087714669,0.0,2.7102222222222223,-2.555,-0.2686250418854015
97,98,Decrease Desire,Prunes_5_1c.jpg,-2.0,1,1,1,1.0,104,3.2240299561926804,0.0,-2.2897777777777777,-2.555,-2.2686250418854015
98,99,Decrease Desire,FibreBrownies_2_1bar.jpg,-2.0,1,1,3,2.0,104,1.3655569373477192,0.0,-2.2897777777777777,-0.5550000000000002,-1.2686250418854015
99,100,Decrease Desire,FrozenBroccoli_6_0.5bag.jpg,-1.0,4,1,6,6.0,104,1.997959813223133,0.0,-2.2897777777777777,2.445,2.7313749581145985
100,101,Decrease Desire,Bananas_3_1.jpg,-2.0,1,1,5,1.0,104,1.0325126969946723,0.0,-2.2897777777777777,1.4449999999999998,-2.2686250418854015
101,102,Decrease Desire,Mackerel_1_1fish.jpg,-2.0,1,1,1,1.0,104,2.4383425107516814,0.0,-2.2897777777777777,-2.555,-2.2686250418854015
102,103,Decrease Desire,RaisinBran_7_2cup.jpg,1.0,4,5,2,4.0,104,1.302721123345691,1.0,1.7102222222222223,-1.5550000000000002,0.7313749581145985
103,104,Decrease Desire,RaisinBran_3_2tbsp.jpg,1.0,1,6,2,6.0,104,0.8476628229254857,1.0,2.7102222222222223,-1.5550000000000002,2.7313749581145985
104,105,Decrease Desire,ClamJuice_1_1T.jpg,-2.0,1,4,1,1.0,104,1.2233194830987486,0.0,0.7102222222222223,-2.555,-2.2686250418854015
105,106,Respond Naturally,Triscuit_2_2crackers.jpg,-2.0,1,1,1,1.0,104,0.7937019354394579,0.0,-2.2897777777777777,-2.555,-2.2686250418854015
106,107,Respond Naturally,ClifBar_4_2bars.jpg,-2.0,1,2,6,1.0,104,0.7215011053376656,0.0,-1.2897777777777777,2.445,-2.2686250418854015
107,108,Respond Naturally,HoneyNutCheerios_2_2tbsp.jpg,-2.0,1,1,1,1.0,104,0.8339226382595369,0.0,-2.2897777777777777,-2.555,-2.2686250418854015
108,109,Respond Naturally,Tempeh_4_.5pack.jpg,-2.0,1,1,1,1.0,104,0.7000514893443324,0.0,-2.2897777777777777,-2.555,-2.2686250418854015
109,110,Respond Naturally,Doritos_5_20chips.jpg,1.0,4,5,1,4.0,104,1.5065453616552986,1.0,1.7102222222222223,-2.555,0.7313749581145985
110,111,Respond Naturally,KashiBars_1_0.5bar.jpg,-2.0,1,1,5,1.0,104,0.9245706798137691,0.0,-2.2897777777777777,1.4449999999999998,-2.2686250418854015
111,112,Respond Naturally,Doritos_2_3chips.jpg,1.0,1,4,1,2.0,104,0.7856543736561434,1.0,0.7102222222222223,-2.555,-1.2686250418854015
112,113,Respond Naturally,ClifBar_2_0.5bar.jpg,-2.0,1,2,6,1.0,104,0.9045514183526392,0.0,-1.2897777777777777,2.445,-2.2686250418854015
113,114,Respond Naturally,ChipsAhoy_2_.5cookie.jpg,2.0,6,5,1,6.0,104,1.7540437380012008,1.0,1.7102222222222223,-2.555,2.7313749581145985
114,115,Respond Naturally,PureFit_2_0.5Bars.jpg,-2.0,1,1,1,1.0,104,1.6627351161296249,0.0,-2.2897777777777777,-2.555,-2.2686250418854015
115,116,Respond Naturally,BrusselsSprouts_2_3.jpg,1.0,1,5,6,5.0,104,0.9452325601960184,1.0,1.7102222222222223,2.445,1.7313749581145985
116,117,Respond Naturally,EnglishCucumber_2_2pc.jpg,1.0,6,4,6,4.0,104,1.033721242518368,1.0,0.7102222222222223,2.445,0.7313749581145985
117,118,Respond Naturally,OatmealSquares_7_2Cups.jpg,-2.0,1,2,6,1.0,104,0.7485791963663359,0.0,-1.2897777777777777,2.445,-2.2686250418854015
118,119,Respond Naturally,AllBranCereal_2_1tbsp.jpg,-2.0,1,1,1,1.0,104,0.7756550065823831,0.0,-2.2897777777777777,-2.555,-2.2686250418854015
119,120,Respond Naturally,GreenApple_4_1.jpg,-2.0,1,1,6,1.0,104,1.1082020298090356,0.0,-2.2897777777777777,2.445,-2.2686250418854015
120,121,Focus on Healthiness,Cauliflower_6_0.5bag.jpg,1.0,1,1,6,4.0,104,1.7297687655263871,1.0,-2.2897777777777777,2.445,0.7313749581145985
121,122,Focus on Healthiness,MnMPlain_5_1bag.jpg,-2.0,1,5,1,1.0,104,0.6791686552496685,0.0,1.7102222222222223,-2.555,-2.2686250418854015
122,123,Focus on Healthiness,LaysClassic_3_8Chips.jpg,-1.0,5,1,1,5.0,104,1.8512354305967165,0.0,-2.2897777777777777,-2.555,1.7313749581145985
123,124,Focus on Healthiness,Shreddies_5_2c.jpg,-2.0,1,1,1,2.0,104,0.6990490722528193,0.0,-2.2897777777777777,-2.555,-1.2686250418854015
124,125,Focus on Healthiness,Strawberries_3_0.5bag.jpg,-2.0,1,2,1,1.0,104,0.951834657058498,0.0,-1.2897777777777777,-2.555,-2.2686250418854015
125,126,Focus on Healthiness,GreenBeans_4_.5pck.jpg,-2.0,1,1,6,1.0,104,0.6815549553211895,0.0,-2.2897777777777777,2.445,-2.2686250418854015
126,127,Focus on Healthiness,GreenBeans_2_9beans.jpg,-2.0,1,1,6,1.0,104,1.2299269968971205,0.0,-2.2897777777777777,2.445,-2.2686250418854015
127,128,Focus on Healthiness,Shreddies_2_1T.jpg,-2.0,1,1,1,1.0,104,1.6552517703385092,0.0,-2.2897777777777777,-2.555,-2.2686250418854015
128,129,Focus on Healthiness,Fritos_2_5chips.jpg,-2.0,6,1,1,1.0,104,2.488567712476652,0.0,-2.2897777777777777,-2.555,-2.2686250418854015
129,130,Focus on Healthiness,OikosYogurt_3_2spoonfuls.jpg,-1.0,1,1,6,1.0,104,0.7764504399383441,0.0,-2.2897777777777777,2.445,-2.2686250418854015
130,131,Focus on Healthiness,JuniorMints_4_1box.jpg,-1.0,5,1,1,2.0,104,0.9560410455014791,0.0,-2.2897777777777777,-2.555,-1.2686250418854015
131,132,Focus on Healthiness,AlmondMilk_2_0.25glass.jpg,-1.0,1,1,6,5.0,104,1.0384881406316708,0.0,-2.2897777777777777,2.445,1.7313749581145985
132,133,Focus on Healthiness,Beets_2_5pc.jpg,-2.0,1,1,1,1.0,104,0.7988622737102559,0.0,-2.2897777777777777,-2.555,-2.2686250418854015
133,134,Focus on Healthiness,IceCreamChocolate_1_1tsp.jpg,2.0,6,5,6,5.0,104,1.093739682884916,1.0,1.7102222222222223,2.445,1.7313749581145985
134,135,Focus on Healthiness,Fritos_5_1c.jpg,,5,1,1,1.0,104,,,-2.2897777777777777,-2.555,-2.2686250418854015
135,136,Decrease Desire,Aero_3_1bar.jpg,2.0,6,5,1,6.0,104,0.9221265041232982,1.0,1.7102222222222223,-2.555,2.7313749581145985
136,137,Decrease Desire,MangoChunks_5_1cup.jpg,-2.0,1,2,6,2.0,104,1.8859684985582132,0.0,-1.2897777777777777,2.445,-1.2686250418854015
137,138,Decrease Desire,Bananas_2_0.5.jpg,-2.0,1,1,6,3.0,104,0.8695834267055034,0.0,-2.2897777777777777,2.445,-0.2686250418854015
138,139,Decrease Desire,WaterChestnuts_3_8pc.jpg,-2.0,1,1,6,1.0,104,1.4355262775279698,0.0,-2.2897777777777777,2.445,-2.2686250418854015
139,140,Decrease Desire,VegetableThins_2_5Chips.jpg,-2.0,1,2,6,1.0,104,0.91591642190906,0.0,-1.2897777777777777,2.445,-2.2686250418854015
140,141,Decrease Desire,YorkPeppermintPatties_2_3.jpg,1.0,1,4,5,4.0,104,1.1127787651857943,1.0,0.7102222222222223,1.4449999999999998,0.7313749581145985
141,142,Decrease Desire,Snickers_3_2Bars.jpg,-2.0,1,1,1,1.0,104,0.9532208208547672,0.0,-2.2897777777777777,-2.555,-2.2686250418854015
142,143,Decrease Desire,Caramilk_5_2bars.jpg,1.0,6,6,1,1.0,104,0.7431711048484431,1.0,2.7102222222222223,-2.555,-2.2686250418854015
143,144,Decrease Desire,NatureValleyChocolate_4_2bars.jpg,1.0,5,4,1,4.0,104,1.4426814714170175,1.0,0.7102222222222223,-2.555,0.7313749581145985
144,145,Decrease Desire,AppleChips_2_3chips.jpg,-2.0,1,1,1,1.0,104,0.6608768241494545,0.0,-2.2897777777777777,-2.555,-2.2686250418854015
145,146,Decrease Desire,Caramilk_2_2pc.jpg,1.0,5,5,1,4.0,104,0.7638555082448875,1.0,1.7102222222222223,-2.555,0.7313749581145985
146,147,Decrease Desire,Snickers_2_1Bar.jpg,-2.0,1,1,1,1.0,104,0.9784657088384848,0.0,-2.2897777777777777,-2.555,-2.2686250418854015
147,148,Decrease Desire,ProMax_2_0.25bar.jpg,-2.0,1,1,6,1.0,104,1.1414611226937268,0.0,-2.2897777777777777,2.445,-2.2686250418854015
148,149,Decrease Desire,Mackerel_3_4fish.jpg,-2.0,1,1,6,1.0,104,0.6751262002071599,0.0,-2.2897777777777777,2.445,-2.2686250418854015
149,150,Decrease Desire,BabyFoodCarrots_3_2Tbsp.jpg,-2.0,1,1,6,1.0,104,0.6363483963868929,0.0,-2.2897777777777777,2.445,-2.2686250418854015
150,151,Respond Naturally,IceCreamVanilla_4_3scoops.jpg,1.0,6,6,1,5.0,104,1.8481346660119016,1.0,2.7102222222222223,-2.555,1.7313749581145985
151,152,Respond Naturally,BabyFoodSweetPotatos_5_1jar.jpg,-2.0,1,2,1,1.0,104,0.6628542885882779,0.0,-1.2897777777777777,-2.555,-2.2686250418854015
152,153,Respond Naturally,GreenPepper_2_2pc.jpg,-2.0,1,1,6,3.0,104,1.4976062872883629,0.0,-2.2897777777777777,2.445,-0.2686250418854015
153,154,Respond Naturally,DriedHerring_3_4fish.jpg,-2.0,1,1,1,1.0,104,0.5942129514805856,0.0,-2.2897777777777777,-2.555,-2.2686250418854015
154,155,Respond Naturally,MnMPeanuts_2_4.jpg,-2.0,1,5,1,1.0,104,0.8007160040651797,0.0,1.7102222222222223,-2.555,-2.2686250418854015
155,156,Respond Naturally,Smartfood_2_8Chips.jpg,-1.0,6,4,5,6.0,104,1.0682159655771102,0.0,0.7102222222222223,1.4449999999999998,2.7313749581145985
156,157,Respond Naturally,GreenPepper_6_1pepper.jpg,-2.0,1,1,6,1.0,104,0.5603471624635858,0.0,-2.2897777777777777,2.445,-2.2686250418854015
157,158,Respond Naturally,GreenApple_2_1slice.jpg,-2.0,1,1,6,2.0,104,0.9088496094991568,0.0,-2.2897777777777777,2.445,-1.2686250418854015
158,159,Respond Naturally,Tempeh_2_1Tbsp.jpg,-2.0,1,1,1,1.0,104,0.7618144661682891,0.0,-2.2897777777777777,-2.555,-2.2686250418854015
159,160,Respond Naturally,Butternut_3_0.3cup.jpg,-2.0,1,2,6,1.0,104,0.5761477761188871,0.0,-1.2897777777777777,2.445,-2.2686250418854015
160,161,Respond Naturally,ChipsAhoy_4_2cookies.jpg,2.0,6,1,1,6.0,104,1.9813860041322189,1.0,-2.2897777777777777,-2.555,2.7313749581145985
161,162,Respond Naturally,HoneyNutCheerios_5_2cup.jpg,-2.0,1,1,3,1.0,104,0.5566020683545503,0.0,-2.2897777777777777,-0.5550000000000002,-2.2686250418854015
162,163,Respond Naturally,SunChips_4_20Chips.jpg,1.0,6,4,1,4.0,104,1.9148683885650823,1.0,0.7102222222222223,-2.555,0.7313749581145985
163,164,Respond Naturally,SunChips_2_3Chips.jpg,1.0,1,2,1,4.0,104,0.6103682314715115,1.0,-1.2897777777777777,-2.555,0.7313749581145985
164,165,Respond Naturally,Mentos_5_1tube.jpg,1.0,6,5,6,4.0,104,0.8747092676858301,1.0,1.7102222222222223,2.445,0.7313749581145985
165,166,Focus on Healthiness,IceCreamChocolate_4_3scoops.jpg,1.0,6,6,1,5.0,104,1.6392458835543948,1.0,2.7102222222222223,-2.555,1.7313749581145985
166,167,Focus on Healthiness,AllBranBar_1_.25bar.jpg,-2.0,1,1,6,1.0,104,0.8801299036713317,0.0,-2.2897777777777777,2.445,-2.2686250418854015
167,168,Focus on Healthiness,CannedArtichoke_5_1can.jpg,-2.0,1,1,4,1.0,104,1.8253020223419296,0.0,-2.2897777777777777,0.44499999999999984,-2.2686250418854015
168,169,Focus on Healthiness,LaysClassic_4_16Chips.jpg,-1.0,1,5,1,4.0,104,0.9569354090999695,0.0,1.7102222222222223,-2.555,0.7313749581145985
169,170,Focus on Healthiness,VanillaGreekYogurt_4_1cup.jpg,-1.0,1,1,6,1.0,104,1.0180936855103937,0.0,-2.2897777777777777,2.445,-2.2686250418854015
170,171,Focus on Healthiness,Spinach_2_.5c.jpg,-2.0,1,1,6,6.0,104,1.0686561623879245,0.0,-2.2897777777777777,2.445,2.7313749581145985
171,172,Focus on Healthiness,SkimMilk_4_1glass.jpg,-2.0,1,1,5,2.0,104,1.151245808294334,0.0,-2.2897777777777777,1.4449999999999998,-1.2686250418854015
172,173,Focus on Healthiness,Cauliflower_2_3chunks.jpg,1.0,1,1,6,4.0,104,1.625663930259179,1.0,-2.2897777777777777,2.445,0.7313749581145985
173,174,Focus on Healthiness,FrozenPeas_6_0.5bag.jpg,-2.0,1,1,6,2.0,104,2.0089014409604715,0.0,-2.2897777777777777,2.445,-1.2686250418854015
174,175,Focus on Healthiness,SkittlesSour_6_0.5pack.jpg,1.0,6,6,1,6.0,104,0.7094874957329012,1.0,2.7102222222222223,-2.555,2.7313749581145985
175,176,Focus on Healthiness,OikosYogurt_6_1c.jpg,-2.0,1,1,1,1.0,104,0.7329251249175286,0.0,-2.2897777777777777,-2.555,-2.2686250418854015
176,177,Focus on Healthiness,SpeltCakes_5_4.jpg,-2.0,1,1,4,1.0,104,2.677144719265925,0.0,-2.2897777777777777,0.44499999999999984,-2.2686250418854015
177,178,Focus on Healthiness,Spinach_4_.5box.jpg,-2.0,1,1,6,1.0,104,1.5235499592017732,0.0,-2.2897777777777777,2.445,-2.2686250418854015
178,179,Focus on Healthiness,Skittles_6_0.75pack.jpg,2.0,6,6,1,6.0,104,1.3091447466285902,1.0,2.7102222222222223,-2.555,2.7313749581145985
179,180,Focus on Healthiness,RedPepper_5_1pepper.jpg,-2.0,1,1,6,1.0,104,0.5302455693818047,0.0,-2.2897777777777777,2.445,-2.2686250418854015
180,181,Focus on Healthiness,SlicedTurkey_2_0.5slice.jpg,-1.0,1,5,3,5.0,104,2.1214928944100397,0.0,1.7102222222222223,-0.5550000000000002,1.7313749581145985
181,182,Focus on Healthiness,CannedArtichoke_5_1can.jpg,-2.0,1,1,4,1.0,104,1.3546714746189537,0.0,-2.2897777777777777,0.44499999999999984,-2.2686250418854015
182,183,Focus on Healthiness,FrozenPeas_2_2tbsp.jpg,-2.0,1,1,1,1.0,104,1.7641751070987084,0.0,-2.2897777777777777,-2.555,-2.2686250418854015
183,184,Focus on Healthiness,CheeseNips_2_5nips.jpg,-2.0,1,1,1,1.0,104,0.804116410385177,0.0,-2.2897777777777777,-2.555,-2.2686250418854015
184,185,Focus on Healthiness,OikosYogurt_3_2spoonfuls.jpg,-2.0,1,1,6,1.0,104,1.1945635693773509,0.0,-2.2897777777777777,2.445,-2.2686250418854015
185,186,Focus on Healthiness,SkittlesSour_6_0.5pack.jpg,1.0,6,6,1,6.0,104,0.6005447720599477,1.0,2.7102222222222223,-2.555,2.7313749581145985
186,187,Focus on Healthiness,GreenBeans_4_.5pck.jpg,-2.0,1,1,6,1.0,104,0.638898344754125,0.0,-2.2897777777777777,2.445,-2.2686250418854015
187,188,Focus on Healthiness,Beets_2_5pc.jpg,-2.0,1,1,1,1.0,104,0.7960657124858699,0.0,-2.2897777777777777,-2.555,-2.2686250418854015
188,189,Focus on Healthiness,JuniorMints_4_1box.jpg,1.0,5,1,1,2.0,104,0.7545315467723412,1.0,-2.2897777777777777,-2.555,-1.2686250418854015
189,190,Focus on Healthiness,FrozenCorn_4_2cups.jpg,-2.0,1,1,5,1.0,104,0.9888761923648416,0.0,-2.2897777777777777,1.4449999999999998,-2.2686250418854015
190,191,Focus on Healthiness,CheeseNips_5_1c.jpg,-2.0,1,1,1,1.0,104,0.8511943759731366,0.0,-2.2897777777777777,-2.555,-2.2686250418854015
191,192,Focus on Healthiness,JuniorMints_2_9pc.jpg,1.0,1,4,1,2.0,104,1.0709546511716326,1.0,0.7102222222222223,-2.555,-1.2686250418854015
192,193,Focus on Healthiness,GreenBeans_2_9beans.jpg,-2.0,1,1,6,1.0,104,1.098356617578247,0.0,-2.2897777777777777,2.445,-2.2686250418854015
193,194,Focus on Healthiness,SpeltCakes_2_0.5.jpg,-2.0,1,2,1,1.0,104,0.6466836131075979,0.0,-1.2897777777777777,-2.555,-2.2686250418854015
194,195,Focus on Healthiness,Spinach_2_.5c.jpg,-2.0,1,1,6,6.0,104,0.6749876408430282,0.0,-2.2897777777777777,2.445,2.7313749581145985
195,196,Decrease Desire,CornFlakes_6_2cups.jpg,-2.0,1,1,6,1.0,104,1.1294871421996504,0.0,-2.2897777777777777,2.445,-2.2686250418854015
196,197,Decrease Desire,Broccoli_4_1.5c.jpg,1.0,4,1,6,6.0,104,0.7601380689884536,1.0,-2.2897777777777777,2.445,2.7313749581145985
197,198,Decrease Desire,MangoChunks_2_3.jpg,-2.0,1,2,6,1.0,104,1.6236756319704,0.0,-1.2897777777777777,2.445,-2.2686250418854015
198,199,Decrease Desire,ProMax_2_0.25bar.jpg,-2.0,1,1,6,1.0,104,3.822365476247796,0.0,-2.2897777777777777,2.445,-2.2686250418854015
199,200,Decrease Desire,MangoChunks_5_1cup.jpg,-2.0,1,2,6,2.0,104,1.2062689841986869,0.0,-1.2897777777777777,2.445,-1.2686250418854015
200,201,Decrease Desire,YorkPeppermintPatties_2_3.jpg,1.0,1,4,5,4.0,104,1.3025315308041172,1.0,0.7102222222222223,1.4449999999999998,0.7313749581145985
201,202,Decrease Desire,Almonds_2_10.jpg,-2.0,1,2,6,1.0,104,2.015379803742689,0.0,-1.2897777777777777,2.445,-2.2686250418854015
202,203,Decrease Desire,FrozenPeaches_2_3Slices.jpg,-2.0,1,1,6,4.0,104,2.0945202909642835,0.0,-2.2897777777777777,2.445,0.7313749581145985
203,204,Decrease Desire,Mars_4_2Bars.jpg,-2.0,1,1,1,1.0,104,2.089446623576805,0.0,-2.2897777777777777,-2.555,-2.2686250418854015
204,205,Decrease Desire,BabyFoodCarrots_5_1jar.jpg,-2.0,1,1,1,1.0,104,1.3523709901128314,0.0,-2.2897777777777777,-2.555,-2.2686250418854015
205,206,Decrease Desire,WaterChestnuts_5_0.5can.jpg,-2.0,1,1,6,1.0,104,0.640762053670187,0.0,-2.2897777777777777,2.445,-2.2686250418854015
206,207,Decrease Desire,FrozenOkra_5_0.5box.jpg,-2.0,1,1,6,1.0,104,0.6630675445485394,0.0,-2.2897777777777777,2.445,-2.2686250418854015
207,208,Decrease Desire,VegetableThins_2_5Chips.jpg,,1,2,6,1.0,104,,,-1.2897777777777777,2.445,-2.2686250418854015
208,209,Decrease Desire,RaisinBran_3_2tbsp.jpg,1.0,1,6,2,6.0,104,0.9406367230258184,1.0,2.7102222222222223,-1.5550000000000002,2.7313749581145985
209,210,Decrease Desire,Bananas_3_1.jpg,-2.0,1,1,5,1.0,104,1.0018637089087858,0.0,-2.2897777777777777,1.4449999999999998,-2.2686250418854015
210,211,Respond Naturally,FruitCrisps_1_0.5bar.jpg,-2.0,1,1,1,1.0,104,0.914064117059752,0.0,-2.2897777777777777,-2.555,-2.2686250418854015
211,212,Respond Naturally,PureFit_2_0.5Bars.jpg,-2.0,1,1,1,1.0,104,0.7270796875964152,0.0,-2.2897777777777777,-2.555,-2.2686250418854015
212,213,Respond Naturally,Smartfood_2_8Chips.jpg,-1.0,6,4,5,6.0,104,0.9895781124141648,0.0,0.7102222222222223,1.4449999999999998,2.7313749581145985
213,214,Respond Naturally,Reese_1_1Cup.jpg,-1.0,1,1,1,1.0,104,1.1204514184137224,0.0,-2.2897777777777777,-2.555,-2.2686250418854015
214,215,Respond Naturally,Mentos_5_1tube.jpg,1.0,6,5,6,4.0,104,2.662447163558681,1.0,1.7102222222222223,2.445,0.7313749581145985
215,216,Respond Naturally,Smartfood_4_100Chips.jpg,-1.0,1,4,6,5.0,104,1.3559629846931784,0.0,0.7102222222222223,2.445,1.7313749581145985
216,217,Respond Naturally,Mentos_2_3pc.jpg,1.0,6,5,1,3.0,104,0.5669110557282693,1.0,1.7102222222222223,-2.555,-0.2686250418854015
217,218,Respond Naturally,Cheerios_5_2c.jpg,-2.0,1,1,5,1.0,104,0.9547022085680509,0.0,-2.2897777777777777,1.4449999999999998,-2.2686250418854015
218,219,Respond Naturally,Tuna_4_1can.jpg,-2.0,1,1,6,2.0,104,1.7782619752615574,0.0,-2.2897777777777777,2.445,-1.2686250418854015
219,220,Respond Naturally,EnglishCucumber_5_0.5cuc.JPG,1.0,5,4,6,4.0,104,0.5385933431025478,1.0,0.7102222222222223,2.445,0.7313749581145985
220,221,Respond Naturally,OatBran_4_1bowl.jpg,-2.0,1,4,6,1.0,104,0.5996837653437979,0.0,0.7102222222222223,2.445,-2.2686250418854015
221,222,Respond Naturally,Reese_4_5Cup.jpg,-2.0,1,1,1,1.0,104,0.5419085040630307,0.0,-2.2897777777777777,-2.555,-2.2686250418854015
222,223,Respond Naturally,MnMPeanuts_2_4.jpg,1.0,1,5,1,1.0,104,1.9391835603601064,1.0,1.7102222222222223,-2.555,-2.2686250418854015
223,224,Respond Naturally,SevenGrain_3_5.jpg,-2.0,1,1,6,3.0,104,0.6965601356132538,0.0,-2.2897777777777777,2.445,-0.2686250418854015
224,225,Respond Naturally,OatmealSquares_3_2tbsp.jpg,-2.0,1,1,3,1.0,104,1.1629420998651767,0.0,-2.2897777777777777,-0.5550000000000002,-2.2686250418854015
225,226,Focus on Healthiness,Raspberries_4_.5c.jpg,-2.0,1,2,6,1.0,104,0.7216405200015288,0.0,-1.2897777777777777,2.445,-2.2686250418854015
226,227,Focus on Healthiness,Skittles_6_0.75pack.jpg,2.0,6,6,1,6.0,104,0.6754110166657483,1.0,2.7102222222222223,-2.555,2.7313749581145985
227,228,Focus on Healthiness,Fritos_5_1c.jpg,2.0,5,1,1,1.0,104,1.083631977220648,1.0,-2.2897777777777777,-2.555,-2.2686250418854015
228,229,Focus on Healthiness,MnMPlain_5_1bag.jpg,-2.0,1,5,1,1.0,104,1.4920165860676209,0.0,1.7102222222222223,-2.555,-2.2686250418854015
229,230,Focus on Healthiness,OikosYogurt_6_1c.jpg,-2.0,1,1,1,1.0,104,0.5622673214893439,0.0,-2.2897777777777777,-2.555,-2.2686250418854015
230,231,Focus on Healthiness,Strawberries_2_0.5c.jpg,-2.0,1,1,6,2.0,104,3.000652027272736,0.0,-2.2897777777777777,2.445,-1.2686250418854015
231,232,Focus on Healthiness,VanillaGreekYogurt_2_1spoon.jpg,-2.0,1,1,1,1.0,104,1.7107690272532636,0.0,-2.2897777777777777,-2.555,-2.2686250418854015
232,233,Focus on Healthiness,Avocado_2_2pc.jpg,-2.0,1,1,6,3.0,104,0.9693071062720264,0.0,-2.2897777777777777,2.445,-0.2686250418854015
233,234,Focus on Healthiness,DriedApricots_5_0.75cup.jpg,-2.0,1,2,3,1.0,104,0.7203170785578551,0.0,-1.2897777777777777,-0.5550000000000002,-2.2686250418854015
234,235,Focus on Healthiness,Raspberries_5_.5bag.jpg,-2.0,1,1,1,1.0,104,1.232006242578791,0.0,-2.2897777777777777,-2.555,-2.2686250418854015
235,236,Focus on Healthiness,AlmondMilk_2_0.25glass.jpg,-2.0,1,1,6,5.0,104,2.540299105749,0.0,-2.2897777777777777,2.445,1.7313749581145985
236,237,Focus on Healthiness,Spinach_4_.5box.jpg,-2.0,1,1,6,1.0,104,1.164661262278969,0.0,-2.2897777777777777,2.445,-2.2686250418854015
237,238,Focus on Healthiness,DriedApricots_2_2.jpg,-2.0,1,1,1,1.0,104,0.5792702084218035,0.0,-2.2897777777777777,-2.555,-2.2686250418854015
238,239,Focus on Healthiness,Cauliflower_6_0.5bag.jpg,-2.0,1,1,6,4.0,104,0.6276545093642198,0.0,-2.2897777777777777,2.445,0.7313749581145985
239,240,Focus on Healthiness,SpeltCakes_5_4.jpg,-2.0,1,1,4,1.0,104,1.9069362929149063,0.0,-2.2897777777777777,0.44499999999999984,-2.2686250418854015
240,241,Respond Naturally,Orange_1_0.25orange.jpg,-2.0,1,1,6,2.0,104,0.6326968155844952,0.0,-2.2897777777777777,2.445,-1.2686250418854015
241,242,Respond Naturally,BrusselsSprouts_2_3.jpg,1.0,1,5,6,5.0,104,0.9388197707667132,1.0,1.7102222222222223,2.445,1.7313749581145985
242,243,Respond Naturally,Butternut_3_0.3cup.jpg,-2.0,1,2,6,1.0,104,0.8949979501194321,0.0,-1.2897777777777777,2.445,-2.2686250418854015
243,244,Respond Naturally,PureFit_4_2Bars.jpg,-2.0,1,2,6,1.0,104,0.7361710061959457,0.0,-1.2897777777777777,2.445,-2.2686250418854015
244,245,Respond Naturally,SunChips_4_20Chips.jpg,-2.0,6,4,1,4.0,104,0.7905358825955773,0.0,0.7102222222222223,-2.555,0.7313749581145985
245,246,Respond Naturally,GreenApple_2_1slice.jpg,-2.0,1,1,6,2.0,104,0.6505775302357506,0.0,-2.2897777777777777,2.445,-1.2686250418854015
246,247,Respond Naturally,HoneyNutCheerios_2_2tbsp.jpg,-2.0,1,1,1,1.0,104,1.486249551679066,0.0,-2.2897777777777777,-2.555,-2.2686250418854015
247,248,Respond Naturally,KashiBars_4_3bars.jpg,-2.0,1,1,6,1.0,104,0.6385308488388546,0.0,-2.2897777777777777,2.445,-2.2686250418854015
248,249,Respond Naturally,MnMPeanuts_4_45.jpg,-2.0,1,1,1,3.0,104,0.7452027385734254,0.0,-2.2897777777777777,-2.555,-0.2686250418854015
249,250,Respond Naturally,Tempeh_4_.5pack.jpg,-2.0,1,1,1,1.0,104,0.8542443924816325,0.0,-2.2897777777777777,-2.555,-2.2686250418854015
250,251,Respond Naturally,HoneyNutCheerios_5_2cup.jpg,-2.0,1,1,3,1.0,104,0.8871311427210458,0.0,-2.2897777777777777,-0.5550000000000002,-2.2686250418854015
251,252,Respond Naturally,EnglishCucumber_2_2pc.jpg,1.0,6,4,6,4.0,104,1.2727945826190992,1.0,0.7102222222222223,2.445,0.7313749581145985
252,253,Respond Naturally,OatmealSquares_7_2Cups.jpg,-2.0,1,2,6,1.0,104,0.7136602421887801,0.0,-1.2897777777777777,2.445,-2.2686250418854015
253,254,Respond Naturally,RiceKrispiesCereal_7_2cups.jpg,-2.0,1,2,1,2.0,104,0.6251524580584373,0.0,-1.2897777777777777,-2.555,-1.2686250418854015
254,255,Respond Naturally,Tuna_2_1T.jpg,-2.0,1,1,6,1.0,104,0.6194136487247306,0.0,-2.2897777777777777,2.445,-2.2686250418854015
255,256,Decrease Desire,RitzCrackers_2_3Crackers.jpg,-2.0,1,1,1,1.0,104,1.5147873627065565,0.0,-2.2897777777777777,-2.555,-2.2686250418854015
256,257,Decrease Desire,FrozenBlueberries_1_1tbsp.jpg,-2.0,1,1,6,1.0,104,0.7253841886122245,0.0,-2.2897777777777777,2.445,-2.2686250418854015
257,258,Decrease Desire,Aero_1_1pc.jpg,-1.0,6,5,1,6.0,104,1.9727574053686112,0.0,1.7102222222222223,-2.555,2.7313749581145985
258,259,Decrease Desire,SlimStyles_2_2Tbsp.jpg,-1.0,3,1,2,1.0,104,1.5185666690013022,0.0,-2.2897777777777777,-1.5550000000000002,-2.2686250418854015
259,260,Decrease Desire,Aero_3_1bar.jpg,2.0,6,5,1,6.0,104,1.0872464948188278,1.0,1.7102222222222223,-2.555,2.7313749581145985
260,261,Decrease Desire,HoneyNutCheerios_2_2tbsp.jpg,-2.0,1,1,1,1.0,104,1.4934458001953317,0.0,-2.2897777777777777,-2.555,-2.2686250418854015
261,262,Decrease Desire,Pringles_2_3Chips.jpg,1.0,5,6,1,3.0,104,0.8416919409210095,1.0,2.7102222222222223,-2.555,-0.2686250418854015
262,263,Decrease Desire,Prunes_2_3.jpg,-2.0,1,1,6,1.0,104,0.5897274486051174,0.0,-2.2897777777777777,2.445,-2.2686250418854015
263,264,Decrease Desire,AppleChips_5_1c..jpg,-2.0,1,1,1,1.0,104,0.6673104259898537,0.0,-2.2897777777777777,-2.555,-2.2686250418854015
264,265,Decrease Desire,FrozenPeaches_5_1.5Cups.jpg,-2.0,1,1,1,5.0,104,0.7534963430007338,0.0,-2.2897777777777777,-2.555,1.7313749581145985
265,266,Decrease Desire,Caramilk_5_2bars.jpg,2.0,6,6,1,1.0,104,1.2953318610743736,1.0,2.7102222222222223,-2.555,-2.2686250418854015
266,267,Decrease Desire,Mackerel_1_1fish.jpg,-2.0,1,1,1,1.0,104,1.4553893033298664,0.0,-2.2897777777777777,-2.555,-2.2686250418854015
267,268,Decrease Desire,BabyFoodCarrots_3_2Tbsp.jpg,-2.0,1,1,6,1.0,104,0.6669720104328007,0.0,-2.2897777777777777,2.445,-2.2686250418854015
268,269,Decrease Desire,HersheysKisses_3_15.jpg,-1.0,6,5,1,4.0,104,1.6442451394468662,0.0,1.7102222222222223,-2.555,0.7313749581145985
269,270,Decrease Desire,NatureValleyChocolate_1_0.25bar.jpg,,4,5,1,4.0,104,,,1.7102222222222223,-2.555,0.7313749581145985
270,271,Decrease Desire,HersheysKisses_2_5.jpg,-1.0,6,5,1,6.0,104,2.4428975784030627,0.0,1.7102222222222223,-2.555,2.7313749581145985
271,272,Decrease Desire,Snickers_2_1Bar.jpg,-2.0,1,1,1,1.0,104,0.7955807547332371,0.0,-2.2897777777777777,-2.555,-2.2686250418854015
272,273,Decrease Desire,RaisinBran_7_2cup.jpg,,4,5,2,4.0,104,,,1.7102222222222223,-1.5550000000000002,0.7313749581145985
273,274,Decrease Desire,AppleChips_2_3chips.jpg,-2.0,1,1,1,1.0,104,3.3729969476989936,0.0,-2.2897777777777777,-2.555,-2.2686250418854015
274,275,Decrease Desire,NatureValleyChocolate_4_2bars.jpg,,5,4,1,4.0,104,,,0.7102222222222223,-2.555,0.7313749581145985
275,276,Decrease Desire,Almonds_4_40.jpg,-2.0,1,5,6,1.0,104,0.5131856621301267,0.0,1.7102222222222223,2.445,-2.2686250418854015
276,277,Decrease Desire,Celery_2_1stalk.jpg,-2.0,5,1,6,1.0,104,0.5261432430052082,0.0,-2.2897777777777777,2.445,-2.2686250418854015
277,278,Decrease Desire,HoneyNutCheerios_5_2cup.jpg,-2.0,1,1,3,1.0,104,0.6706033490336267,0.0,-2.2897777777777777,-0.5550000000000002,-2.2686250418854015
278,279,Decrease Desire,FrozenBroccoli_6_0.5bag.jpg,-2.0,4,1,6,6.0,104,0.8019345281354617,0.0,-2.2897777777777777,2.445,2.7313749581145985
279,280,Decrease Desire,SlimStyles_6_2c.jpg,,1,5,3,4.0,104,,,1.7102222222222223,-0.5550000000000002,0.7313749581145985
280,281,Decrease Desire,ProMax_4_1bar.jpg,-2.0,1,1,1,1.0,104,1.0047229924675776,0.0,-2.2897777777777777,-2.555,-2.2686250418854015
281,282,Decrease Desire,Mars_2_0.5Bar.jpg,-1.0,1,1,1,3.0,104,1.157699652350857,0.0,-2.2897777777777777,-2.555,-0.2686250418854015
282,283,Decrease Desire,WaterChestnuts_3_8pc.jpg,-2.0,1,1,6,1.0,104,0.5977935419941787,0.0,-2.2897777777777777,2.445,-2.2686250418854015
283,284,Decrease Desire,FibreBrownies_3_2bars.jpg,1.0,1,5,4,2.0,104,1.7386830360628664,1.0,1.7102222222222223,0.44499999999999984,-1.2686250418854015
284,285,Decrease Desire,FibreBrownies_2_1bar.jpg,1.0,1,1,3,2.0,104,3.1041832381961285,1.0,-2.2897777777777777,-0.5550000000000002,-1.2686250418854015
285,286,Focus on Healthiness,Strawberries_3_0.5bag.jpg,-2.0,1,2,1,1.0,104,0.4760323670125217,0.0,-1.2897777777777777,-2.555,-2.2686250418854015
286,287,Focus on Healthiness,SlicedTurkey_5_4slices.jpg,1.0,5,6,1,5.0,104,1.6100281053149956,1.0,2.7102222222222223,-2.555,1.7313749581145985
287,288,Focus on Healthiness,Cauliflower_2_3chunks.jpg,1.0,1,1,6,4.0,104,3.4155110074862023,1.0,-2.2897777777777777,2.445,0.7313749581145985
288,289,Focus on Healthiness,LuckyCharms_3_2tbsps.jpg,,1,1,1,1.0,104,,,-2.2897777777777777,-2.555,-2.2686250418854015
289,290,Focus on Healthiness,IceCreamChocolate_1_1tsp.jpg,-1.0,6,5,6,5.0,104,2.868124562017329,0.0,1.7102222222222223,2.445,1.7313749581145985
290,291,Focus on Healthiness,IceCreamChocolate_4_3scoops.jpg,-1.0,6,6,1,5.0,104,2.003703184185724,0.0,2.7102222222222223,-2.555,1.7313749581145985
291,292,Focus on Healthiness,LaysClassic_3_8Chips.jpg,-1.0,5,1,1,5.0,104,1.597718845383497,0.0,-2.2897777777777777,-2.555,1.7313749581145985
292,293,Focus on Healthiness,SkimMilk_4_1glass.jpg,-2.0,1,1,5,2.0,104,0.9339225812364019,0.0,-2.2897777777777777,1.4449999999999998,-1.2686250418854015
293,294,Focus on Healthiness,Fritos_2_5chips.jpg,1.0,6,1,1,1.0,104,0.4904830247687642,1.0,-2.2897777777777777,-2.555,-2.2686250418854015
294,295,Focus on Healthiness,AllBranBar_3_1bar.jpg,-2.0,1,1,6,1.0,104,0.5527232616077526,0.0,-2.2897777777777777,2.445,-2.2686250418854015
295,296,Focus on Healthiness,LaysClassic_4_16Chips.jpg,-2.0,1,5,1,4.0,104,0.6032304287728039,0.0,1.7102222222222223,-2.555,0.7313749581145985
296,297,Focus on Healthiness,LuckyCharms_6_1cup.jpg,-1.0,1,2,1,1.0,104,0.7934852582548046,0.0,-1.2897777777777777,-2.555,-2.2686250418854015
297,298,Focus on Healthiness,Shreddies_2_1T.jpg,-1.0,1,1,1,1.0,104,1.3954327300016305,0.0,-2.2897777777777777,-2.555,-2.2686250418854015
298,299,Focus on Healthiness,Beets_5_1can.jpg,-2.0,1,1,6,1.0,104,0.7010884037226788,0.0,-2.2897777777777777,2.445,-2.2686250418854015
299,300,Focus on Healthiness,VanillaGreekYogurt_4_1cup.jpg,-2.0,1,1,6,1.0,104,0.7277878798777238,0.0,-2.2897777777777777,2.445,-2.2686250418854015
300,301,Respond Naturally,BBQCrisps_6_1cup.jpg,-2.0,1,1,1,1.0,104,1.9525046457274584,0.0,-2.2897777777777777,-2.555,-2.2686250418854015
301,302,Respond Naturally,DriedHerring_3_4fish.jpg,-2.0,1,1,1,1.0,104,0.5564349988417234,0.0,-2.2897777777777777,-2.555,-2.2686250418854015
302,303,Respond Naturally,IceCreamVanilla_4_3scoops.jpg,1.0,6,6,1,5.0,104,0.9481961909332312,1.0,2.7102222222222223,-2.555,1.7313749581145985
303,304,Respond Naturally,BrusselsSprouts_4_1Box.jpg,1.0,4,1,5,5.0,104,0.6432278970751213,1.0,-2.2897777777777777,1.4449999999999998,1.7313749581145985
304,305,Respond Naturally,Butternut_7_2cups.jpg,-2.0,1,2,6,1.0,104,0.667615769765689,0.0,-1.2897777777777777,2.445,-2.2686250418854015
305,306,Respond Naturally,ChipsAhoy_4_2cookies.jpg,2.0,6,1,1,6.0,104,2.1311313229161897,1.0,-2.2897777777777777,-2.555,2.7313749581145985
306,307,Respond Naturally,SunChips_2_3Chips.jpg,1.0,1,2,1,4.0,104,1.2081703265139367,1.0,-1.2897777777777777,-2.555,0.7313749581145985
307,308,Respond Naturally,ClifBar_2_0.5bar.jpg,-2.0,1,2,6,1.0,104,0.7325182849890552,0.0,-1.2897777777777777,2.445,-2.2686250418854015
308,309,Respond Naturally,Triscuit_2_2crackers.jpg,-2.0,1,1,1,1.0,104,1.263775679813989,0.0,-2.2897777777777777,-2.555,-2.2686250418854015
309,310,Respond Naturally,Tempeh_2_1Tbsp.jpg,-2.0,1,1,1,1.0,104,0.5614647605907521,0.0,-2.2897777777777777,-2.555,-2.2686250418854015
310,311,Respond Naturally,AllBranCereal_2_1tbsp.jpg,-2.0,1,1,1,1.0,104,1.2200308365863748,0.0,-2.2897777777777777,-2.555,-2.2686250418854015
311,312,Respond Naturally,IceCreamVanilla_1_2tsp.jpg,1.0,5,6,1,5.0,104,0.9146710982895456,1.0,2.7102222222222223,-2.555,1.7313749581145985
312,313,Respond Naturally,DriedHerring_1_1fish.jpg,-2.0,1,1,6,1.0,104,0.896696015028283,0.0,-2.2897777777777777,2.445,-2.2686250418854015
313,314,Respond Naturally,OatBran_2_2T.jpg,-2.0,4,1,6,1.0,104,0.5108455485096783,0.0,-2.2897777777777777,2.445,-2.2686250418854015
314,315,Respond Naturally,GreenPepper_2_2pc.jpg,-2.0,1,1,6,3.0,104,0.8272931716492167,0.0,-2.2897777777777777,2.445,-0.2686250418854015
315,316,Focus on Healthiness,PopTartStrawberry_5_3tarts.jpg,-2.0,1,1,1,1.0,104,0.7306608483122545,0.0,-2.2897777777777777,-2.555,-2.2686250418854015
316,317,Focus on Healthiness,Avocado_5_1avacado.jpg,-1.0,1,1,6,3.0,104,1.0469981371425092,0.0,-2.2897777777777777,2.445,-0.2686250418854015
317,318,Focus on Healthiness,Asparagus_3_7.jpg,-2.0,1,1,6,1.0,104,2.5190530522741033,0.0,-2.2897777777777777,2.445,-2.2686250418854015
318,319,Focus on Healthiness,Shreddies_5_2c.jpg,-2.0,1,1,1,2.0,104,0.7302964885166148,0.0,-2.2897777777777777,-2.555,-1.2686250418854015
319,320,Focus on Healthiness,PopTartStrawberry_2_0.5tart.jpg,-2.0,1,4,2,2.0,104,0.95815507358202,0.0,0.7102222222222223,-1.5550000000000002,-1.2686250418854015
320,321,Focus on Healthiness,AllBranBar_1_.25bar.jpg,-1.0,1,1,6,1.0,104,0.479147101570561,0.0,-2.2897777777777777,2.445,-2.2686250418854015
321,322,Focus on Healthiness,CannedArtichoke_2_2.jpg,-2.0,1,1,6,1.0,104,3.039384499941661,0.0,-2.2897777777777777,2.445,-2.2686250418854015
322,323,Focus on Healthiness,AlmondMilk_4_1glass.jpg,-2.0,1,1,1,4.0,104,0.5980561205287813,0.0,-2.2897777777777777,-2.555,0.7313749581145985
323,324,Focus on Healthiness,RedPepper_2_2pc.jpg,-1.0,1,1,6,1.0,104,0.6030154621985275,0.0,-2.2897777777777777,2.445,-2.2686250418854015
324,325,Focus on Healthiness,MnMPlain_3_1tbsp.jpg,-2.0,1,4,1,1.0,104,0.8299061274592532,0.0,0.7102222222222223,-2.555,-2.2686250418854015
325,326,Focus on Healthiness,SkimMilk_1_1Tbsp.jpg,,1,1,6,2.0,104,,,-2.2897777777777777,2.445,-1.2686250418854015
326,327,Focus on Healthiness,Asparagus_6_FullPack.jpg,-2.0,1,1,6,1.0,104,0.5666729959266377,0.0,-2.2897777777777777,2.445,-2.2686250418854015
327,328,Focus on Healthiness,FrozenPeas_6_0.5bag.jpg,-2.0,1,1,6,2.0,104,0.5253409672077396,0.0,-2.2897777777777777,2.445,-1.2686250418854015
328,329,Focus on Healthiness,RedPepper_5_1pepper.jpg,-1.0,1,1,6,1.0,104,0.7267809011609643,0.0,-2.2897777777777777,2.445,-2.2686250418854015
329,330,Focus on Healthiness,FrozenCorn_2_0.5cup.jpg,-2.0,1,1,6,3.0,104,2.490718518660288,0.0,-2.2897777777777777,2.445,-0.2686250418854015
330,331,Decrease Desire,Prunes_5_1c.jpg,-2.0,1,1,1,1.0,104,0.7377259501154185,0.0,-2.2897777777777777,-2.555,-2.2686250418854015
331,332,Decrease Desire,RitzCrackers_5_15Crackers.jpg,-1.0,1,1,1,2.0,104,1.0851070927019464,0.0,-2.2897777777777777,-2.555,-1.2686250418854015
332,333,Decrease Desire,Celery_4_0.5bunch.jpg,-2.0,1,1,6,1.0,104,0.8255837026808877,0.0,-2.2897777777777777,2.445,-2.2686250418854015
333,334,Decrease Desire,FrozenOkra_2_2pc.jpg,-2.0,1,1,6,1.0,104,2.2323686066665687,0.0,-2.2897777777777777,2.445,-2.2686250418854015
334,335,Decrease Desire,CornFlakes_3_2tbsps.jpg,-2.0,1,2,1,1.0,104,3.5893226043917816,0.0,-1.2897777777777777,-2.555,-2.2686250418854015
335,336,Decrease Desire,VegetableThins_5_25Chips.jpg,-2.0,1,1,6,1.0,104,2.862772920590942,0.0,-2.2897777777777777,2.445,-2.2686250418854015
336,337,Decrease Desire,Caramilk_2_2pc.jpg,1.0,5,5,1,4.0,104,1.3746023545973003,1.0,1.7102222222222223,-2.555,0.7313749581145985
337,338,Decrease Desire,ClamJuice_1_1T.jpg,-2.0,1,4,1,1.0,104,0.8254300329354008,0.0,0.7102222222222223,-2.555,-2.2686250418854015
338,339,Decrease Desire,FrozenBlueberries_3_1cup.jpg,-2.0,1,1,5,1.0,104,1.2935074961787905,0.0,-2.2897777777777777,1.4449999999999998,-2.2686250418854015
339,340,Decrease Desire,Mackerel_3_4fish.jpg,-2.0,1,1,6,1.0,104,0.5851877764434903,0.0,-2.2897777777777777,2.445,-2.2686250418854015
340,341,Decrease Desire,Snickers_3_2Bars.jpg,-2.0,1,1,1,1.0,104,0.8257208365394035,0.0,-2.2897777777777777,-2.555,-2.2686250418854015
341,342,Decrease Desire,TofuDessert_4_1pck.jpg,-2.0,1,1,5,,104,1.2785333919528057,0.0,-2.2897777777777777,1.4449999999999998,
342,343,Decrease Desire,Pringles_5_40Chips.jpg,-2.0,4,5,1,3.0,104,0.946200479993422,0.0,1.7102222222222223,-2.555,-0.2686250418854015
343,344,Decrease Desire,YorkPeppermintPatties_4_12.jpg,1.0,4,6,1,5.0,104,0.8063561682574799,1.0,2.7102222222222223,-2.555,1.7313749581145985
344,345,Decrease Desire,Bananas_2_0.5.jpg,-2.0,1,1,6,3.0,104,2.0240879458433483,0.0,-2.2897777777777777,2.445,-0.2686250418854015
345,346,Respond Naturally,Doritos_5_20chips.jpg,2.0,4,5,1,4.0,104,1.2902017435626476,1.0,1.7102222222222223,-2.555,0.7313749581145985
346,347,Respond Naturally,RiceKrispiesCereal_3_2tbsp.jpg,-2.0,1,1,1,1.0,104,0.6077193528690259,0.0,-2.2897777777777777,-2.555,-2.2686250418854015
347,348,Respond Naturally,IcebergLettuce_4_8leaves.jpg,1.0,3,4,6,5.0,104,1.0461784701547003,1.0,0.7102222222222223,2.445,1.7313749581145985
348,349,Respond Naturally,BabyFoodSweetPotatos_5_1jar.jpg,-2.0,1,2,1,1.0,104,2.6038602181288297,0.0,-1.2897777777777777,-2.555,-2.2686250418854015
349,350,Respond Naturally,GreenPepper_6_1pepper.jpg,-2.0,1,1,6,1.0,104,0.7307443830723059,0.0,-2.2897777777777777,2.445,-2.2686250418854015
350,351,Respond Naturally,FruitCrisps_3_2bars.jpg,-2.0,1,1,1,1.0,104,0.6984834307513665,0.0,-2.2897777777777777,-2.555,-2.2686250418854015
351,352,Respond Naturally,Orange_5_2orange.jpg,-2.0,1,2,6,1.0,104,0.6004791986997589,0.0,-1.2897777777777777,2.445,-2.2686250418854015
352,353,Respond Naturally,SevenGrain_1_1.jpg,-2.0,1,1,5,1.0,104,1.2649363282689592,0.0,-2.2897777777777777,1.4449999999999998,-2.2686250418854015
353,354,Respond Naturally,ClifBar_4_2bars.jpg,-2.0,1,2,6,1.0,104,0.7186098904057872,0.0,-1.2897777777777777,2.445,-2.2686250418854015
354,355,Respond Naturally,GreenApple_4_1.jpg,-2.0,1,1,6,1.0,104,0.6116777029455989,0.0,-2.2897777777777777,2.445,-2.2686250418854015
355,356,Respond Naturally,AllBranCereal_6_1cup.jpg,-2.0,1,2,6,1.0,104,0.9725641065087984,0.0,-1.2897777777777777,2.445,-2.2686250418854015
356,357,Respond Naturally,Doritos_2_3chips.jpg,1.0,1,4,1,2.0,104,0.7859637088477031,1.0,0.7102222222222223,-2.555,-1.2686250418854015
357,358,Respond Naturally,Triscuit_5_30crackers.jpg,-2.0,1,1,6,1.0,104,1.0741121509709046,0.0,-2.2897777777777777,2.445,-2.2686250418854015
358,359,Respond Naturally,KashiBars_1_0.5bar.jpg,-2.0,1,1,5,1.0,104,0.5510058098006994,0.0,-2.2897777777777777,1.4449999999999998,-2.2686250418854015
359,360,Respond Naturally,ChipsAhoy_2_.5cookie.jpg,1.0,6,5,1,6.0,104,0.7787318226401112,1.0,1.7102222222222223,-2.555,2.7313749581145985
360,361,Decrease Desire,RaisinBran_7_2cup.jpg,1.0,4,5,2,4.0,104,1.5205620948327123,1.0,1.7102222222222223,-1.5550000000000002,0.7313749581145985
361,362,Decrease Desire,CornFlakes_3_2tbsps.jpg,-2.0,1,2,1,1.0,104,0.9686240029259352,0.0,-1.2897777777777777,-2.555,-2.2686250418854015
362,363,Decrease Desire,FrozenOkra_2_2pc.jpg,-2.0,1,1,6,1.0,104,0.7490533202653751,0.0,-2.2897777777777777,2.445,-2.2686250418854015
363,364,Decrease Desire,Broccoli_4_1.5c.jpg,-2.0,4,1,6,6.0,104,0.2947277308630873,0.0,-2.2897777777777777,2.445,2.7313749581145985
364,365,Decrease Desire,Snickers_3_2Bars.jpg,-2.0,1,1,1,1.0,104,0.7358325906388927,0.0,-2.2897777777777777,-2.555,-2.2686250418854015
365,366,Decrease Desire,AppleChips_2_3chips.jpg,-2.0,1,1,1,1.0,104,0.6693463362462353,0.0,-2.2897777777777777,-2.555,-2.2686250418854015
366,367,Decrease Desire,FibreBrownies_2_1bar.jpg,-2.0,1,1,3,2.0,104,1.0051745933451457,0.0,-2.2897777777777777,-0.5550000000000002,-1.2686250418854015
367,368,Decrease Desire,Mars_2_0.5Bar.jpg,-1.0,1,1,1,3.0,104,1.3175595192296896,0.0,-2.2897777777777777,-2.555,-0.2686250418854015
368,369,Decrease Desire,SlimStyles_2_2Tbsp.jpg,-1.0,3,1,2,1.0,104,2.182309048956085,0.0,-2.2897777777777777,-1.5550000000000002,-2.2686250418854015
369,370,Decrease Desire,FrozenOkra_5_0.5box.jpg,-2.0,1,1,6,1.0,104,1.6874574129542452,0.0,-2.2897777777777777,2.445,-2.2686250418854015
370,371,Decrease Desire,FrozenPeaches_5_1.5Cups.jpg,-2.0,1,1,1,5.0,104,0.6569278824172216,0.0,-2.2897777777777777,-2.555,1.7313749581145985
371,372,Decrease Desire,HoneyNutCheerios_5_2cup.jpg,-1.0,1,1,3,1.0,104,0.5414654562409851,0.0,-2.2897777777777777,-0.5550000000000002,-2.2686250418854015
372,373,Decrease Desire,FrozenPeaches_2_3Slices.jpg,-2.0,1,1,6,4.0,104,1.2802428609138587,0.0,-2.2897777777777777,2.445,0.7313749581145985
373,374,Decrease Desire,Pringles_5_40Chips.jpg,-2.0,4,5,1,3.0,104,1.0910178182748496,0.0,1.7102222222222223,-2.555,-0.2686250418854015
374,375,Decrease Desire,HersheysKisses_3_15.jpg,1.0,6,5,1,4.0,104,0.9773965779822902,1.0,1.7102222222222223,-2.555,0.7313749581145985
375,376,Focus on Healthiness,Strawberries_2_0.5c.jpg,-2.0,1,1,6,2.0,104,0.7165893756318837,0.0,-2.2897777777777777,2.445,-1.2686250418854015
376,377,Focus on Healthiness,FrozenCorn_4_2cups.jpg,-2.0,1,1,5,1.0,104,0.7170831715338863,0.0,-2.2897777777777777,1.4449999999999998,-2.2686250418854015
377,378,Focus on Healthiness,GreenBeans_2_9beans.jpg,-2.0,1,1,6,1.0,104,0.5557242406503065,0.0,-2.2897777777777777,2.445,-2.2686250418854015
378,379,Focus on Healthiness,Avocado_5_1avacado.jpg,-2.0,1,1,6,3.0,104,1.3044331582204904,0.0,-2.2897777777777777,2.445,-0.2686250418854015
379,380,Focus on Healthiness,SkittlesSour_6_0.5pack.jpg,2.0,6,6,1,6.0,104,1.0287299694755347,1.0,2.7102222222222223,-2.555,2.7313749581145985
380,381,Focus on Healthiness,LuckyCharms_3_2tbsps.jpg,-2.0,1,1,1,1.0,104,0.6448985922252177,0.0,-2.2897777777777777,-2.555,-2.2686250418854015
381,382,Focus on Healthiness,LaysClassic_4_16Chips.jpg,-2.0,1,5,1,4.0,104,1.03536114669987,0.0,1.7102222222222223,-2.555,0.7313749581145985
382,383,Focus on Healthiness,CheeseNips_2_5nips.jpg,-2.0,1,1,1,1.0,104,1.1960232893761713,0.0,-2.2897777777777777,-2.555,-2.2686250418854015
383,384,Focus on Healthiness,PopTartStrawberry_2_0.5tart.jpg,-1.0,1,4,2,2.0,104,0.7831158293483895,0.0,0.7102222222222223,-1.5550000000000002,-1.2686250418854015
384,385,Focus on Healthiness,MnMPlain_5_1bag.jpg,-1.0,1,5,1,1.0,104,1.4781692032120188,0.0,1.7102222222222223,-2.555,-2.2686250418854015
385,386,Focus on Healthiness,AlmondMilk_4_1glass.jpg,-1.0,1,1,1,4.0,104,2.1311404461594066,0.0,-2.2897777777777777,-2.555,0.7313749581145985
386,387,Focus on Healthiness,SkimMilk_1_1Tbsp.jpg,-1.0,1,1,6,2.0,104,1.1298634762642903,0.0,-2.2897777777777777,2.445,-1.2686250418854015
387,388,Focus on Healthiness,SpeltCakes_2_0.5.jpg,-2.0,1,2,1,1.0,104,0.7040109798326739,0.0,-1.2897777777777777,-2.555,-2.2686250418854015
388,389,Focus on Healthiness,RedPepper_5_1pepper.jpg,-2.0,1,1,6,1.0,104,1.24831975394045,0.0,-2.2897777777777777,2.445,-2.2686250418854015
389,390,Focus on Healthiness,Asparagus_6_FullPack.jpg,,1,1,6,1.0,104,,,-2.2897777777777777,2.445,-2.2686250418854015
390,391,Respond Naturally,Tuna_4_1can.jpg,-2.0,1,1,6,2.0,104,0.6553239010390826,0.0,-2.2897777777777777,2.445,-1.2686250418854015
391,392,Respond Naturally,Reese_4_5Cup.jpg,-2.0,1,1,1,1.0,104,1.10562100536481,0.0,-2.2897777777777777,-2.555,-2.2686250418854015
392,393,Respond Naturally,AllBranCereal_6_1cup.jpg,-2.0,1,2,6,1.0,104,0.9245256337671891,0.0,-1.2897777777777777,2.445,-2.2686250418854015
393,394,Respond Naturally,Mentos_5_1tube.jpg,1.0,6,5,6,4.0,104,0.6431620386065333,1.0,1.7102222222222223,2.445,0.7313749581145985
394,395,Respond Naturally,Triscuit_5_30crackers.jpg,-1.0,1,1,6,1.0,104,1.1901325209037168,0.0,-2.2897777777777777,2.445,-2.2686250418854015
395,396,Respond Naturally,Orange_5_2orange.jpg,-1.0,1,2,6,1.0,104,0.9476154390431476,0.0,-1.2897777777777777,2.445,-2.2686250418854015
396,397,Respond Naturally,BrusselsSprouts_2_3.jpg,-1.0,1,5,6,5.0,104,0.4689880776204518,0.0,1.7102222222222223,2.445,1.7313749581145985
397,398,Respond Naturally,IceCreamVanilla_4_3scoops.jpg,1.0,6,6,1,5.0,104,1.0577056964975782,1.0,2.7102222222222223,-2.555,1.7313749581145985
398,399,Respond Naturally,PureFit_4_2Bars.jpg,-2.0,1,2,6,1.0,104,1.7925840522148064,0.0,-1.2897777777777777,2.445,-2.2686250418854015
399,400,Respond Naturally,Tempeh_2_1Tbsp.jpg,-2.0,1,1,1,1.0,104,0.8206294928459101,0.0,-2.2897777777777777,-2.555,-2.2686250418854015
400,401,Respond Naturally,OatmealSquares_7_2Cups.jpg,-2.0,1,2,6,1.0,104,0.8322967040512594,0.0,-1.2897777777777777,2.445,-2.2686250418854015
401,402,Respond Naturally,IcebergLettuce_4_8leaves.jpg,-1.0,3,4,6,5.0,104,1.1549760771304136,0.0,0.7102222222222223,2.445,1.7313749581145985
402,403,Respond Naturally,Smartfood_4_100Chips.jpg,-1.0,1,4,6,5.0,104,0.8378855499686324,0.0,0.7102222222222223,2.445,1.7313749581145985
403,404,Respond Naturally,OatBran_2_2T.jpg,-2.0,4,1,6,1.0,104,1.2281610778227332,0.0,-2.2897777777777777,2.445,-2.2686250418854015
404,405,Respond Naturally,BBQCrisps_6_1cup.jpg,-1.0,1,1,1,1.0,104,0.8785974827842438,0.0,-2.2897777777777777,-2.555,-2.2686250418854015
405,406,Focus on Healthiness,LuckyCharms_6_1cup.jpg,-1.0,1,2,1,1.0,104,1.5205119169550017,0.0,-1.2897777777777777,-2.555,-2.2686250418854015
406,407,Focus on Healthiness,Fritos_5_1c.jpg,-2.0,5,1,1,1.0,104,0.9759340069722384,0.0,-2.2897777777777777,-2.555,-2.2686250418854015
407,408,Focus on Healthiness,RedPepper_2_2pc.jpg,-2.0,1,1,6,1.0,104,0.8807785097233136,0.0,-2.2897777777777777,2.445,-2.2686250418854015
408,409,Focus on Healthiness,Cauliflower_2_3chunks.jpg,-1.0,1,1,6,4.0,104,1.7789299682262936,0.0,-2.2897777777777777,2.445,0.7313749581145985
409,410,Focus on Healthiness,Skittles_6_0.75pack.jpg,1.0,6,6,1,6.0,104,1.2496146852427046,1.0,2.7102222222222223,-2.555,2.7313749581145985
410,411,Focus on Healthiness,Raspberries_4_.5c.jpg,-2.0,1,2,6,1.0,104,0.9619634602422592,0.0,-1.2897777777777777,2.445,-2.2686250418854015
411,412,Focus on Healthiness,AllBranBar_3_1bar.jpg,-2.0,1,1,6,1.0,104,0.9620090764947236,0.0,-2.2897777777777777,2.445,-2.2686250418854015
412,413,Focus on Healthiness,Raspberries_5_.5bag.jpg,-2.0,1,1,1,1.0,104,0.7469635258166818,0.0,-2.2897777777777777,-2.555,-2.2686250418854015
413,414,Focus on Healthiness,Asparagus_3_7.jpg,-2.0,1,1,6,1.0,104,1.7540015429694904,0.0,-2.2897777777777777,2.445,-2.2686250418854015
414,415,Focus on Healthiness,SlicedTurkey_2_0.5slice.jpg,1.0,1,5,3,5.0,104,1.1941247980794287,1.0,1.7102222222222223,-0.5550000000000002,1.7313749581145985
415,416,Focus on Healthiness,FrozenCorn_2_0.5cup.jpg,-2.0,1,1,6,3.0,104,0.6110718621275737,0.0,-2.2897777777777777,2.445,-0.2686250418854015
416,417,Focus on Healthiness,CheeseNips_5_1c.jpg,-2.0,1,1,1,1.0,104,1.1865912744106026,0.0,-2.2897777777777777,-2.555,-2.2686250418854015
417,418,Focus on Healthiness,AllBranBar_1_.25bar.jpg,-2.0,1,1,6,1.0,104,0.63452802291431,0.0,-2.2897777777777777,2.445,-2.2686250418854015
418,419,Focus on Healthiness,DriedApricots_2_2.jpg,-1.0,1,1,1,1.0,104,0.6586547425758909,0.0,-2.2897777777777777,-2.555,-2.2686250418854015
419,420,Focus on Healthiness,Beets_2_5pc.jpg,-2.0,1,1,1,1.0,104,0.5425271744607016,0.0,-2.2897777777777777,-2.555,-2.2686250418854015
420,421,Respond Naturally,KashiBars_4_3bars.jpg,1.0,1,1,6,1.0,104,2.092501201703272,1.0,-2.2897777777777777,2.445,-2.2686250418854015
421,422,Respond Naturally,SevenGrain_3_5.jpg,-2.0,1,1,6,3.0,104,0.6186646869246033,0.0,-2.2897777777777777,2.445,-0.2686250418854015
422,423,Respond Naturally,GreenApple_2_1slice.jpg,-2.0,1,1,6,2.0,104,0.7200704657007009,0.0,-2.2897777777777777,2.445,-1.2686250418854015
423,424,Respond Naturally,Reese_1_1Cup.jpg,1.0,1,1,1,1.0,104,0.6309779382718261,1.0,-2.2897777777777777,-2.555,-2.2686250418854015
424,425,Respond Naturally,Doritos_5_20chips.jpg,1.0,4,5,1,4.0,104,0.9455495931324548,1.0,1.7102222222222223,-2.555,0.7313749581145985
425,426,Respond Naturally,FruitCrisps_1_0.5bar.jpg,-2.0,1,1,1,1.0,104,2.0448741305081057,0.0,-2.2897777777777777,-2.555,-2.2686250418854015
426,427,Respond Naturally,Butternut_3_0.3cup.jpg,-2.0,1,2,6,1.0,104,0.5827849404813605,0.0,-1.2897777777777777,2.445,-2.2686250418854015
427,428,Respond Naturally,EnglishCucumber_2_2pc.jpg,1.0,6,4,6,4.0,104,0.9931800855410984,1.0,0.7102222222222223,2.445,0.7313749581145985
428,429,Respond Naturally,KashiBars_1_0.5bar.jpg,-2.0,1,1,5,1.0,104,0.5742735184612684,0.0,-2.2897777777777777,1.4449999999999998,-2.2686250418854015
429,430,Respond Naturally,OatmealSquares_3_2tbsp.jpg,-2.0,1,1,3,1.0,104,1.2161226643802363,0.0,-2.2897777777777777,-0.5550000000000002,-2.2686250418854015
430,431,Respond Naturally,EnglishCucumber_5_0.5cuc.JPG,1.0,5,4,6,4.0,104,1.094146237715904,1.0,0.7102222222222223,2.445,0.7313749581145985
431,432,Respond Naturally,SunChips_4_20Chips.jpg,1.0,6,4,1,4.0,104,0.7294072567456169,1.0,0.7102222222222223,-2.555,0.7313749581145985
432,433,Respond Naturally,BabyFoodSweetPotatos_5_1jar.jpg,-2.0,1,2,1,1.0,104,0.6597275797539623,0.0,-1.2897777777777777,-2.555,-2.2686250418854015
433,434,Respond Naturally,ClifBar_4_2bars.jpg,-2.0,1,2,6,1.0,104,3.2155692822416317,0.0,-1.2897777777777777,2.445,-2.2686250418854015
434,435,Respond Naturally,Orange_1_0.25orange.jpg,-2.0,1,1,6,2.0,104,2.073488348753017,0.0,-2.2897777777777777,2.445,-1.2686250418854015
435,436,Decrease Desire,ProMax_4_1bar.jpg,-2.0,1,1,1,1.0,104,1.2853108262715978,0.0,-2.2897777777777777,-2.555,-2.2686250418854015
436,437,Decrease Desire,NatureValleyChocolate_1_0.25bar.jpg,-2.0,4,5,1,4.0,104,2.1048073255078634,0.0,1.7102222222222223,-2.555,0.7313749581145985
437,438,Decrease Desire,Mackerel_3_4fish.jpg,-2.0,1,1,6,1.0,104,0.5774070697225397,0.0,-2.2897777777777777,2.445,-2.2686250418854015
438,439,Decrease Desire,Prunes_2_3.jpg,-2.0,1,1,6,1.0,104,1.721426693831745,0.0,-2.2897777777777777,2.445,-2.2686250418854015
439,440,Decrease Desire,FrozenBroccoli_6_0.5bag.jpg,1.0,4,1,6,6.0,104,0.7996041079677525,1.0,-2.2897777777777777,2.445,2.7313749581145985
440,441,Decrease Desire,HoneyNutCheerios_2_2tbsp.jpg,1.0,1,1,1,1.0,104,1.8187965749093564,1.0,-2.2897777777777777,-2.555,-2.2686250418854015
441,442,Decrease Desire,TofuDessert_4_1pck.jpg,-2.0,1,1,5,,104,3.164417785548721,0.0,-2.2897777777777777,1.4449999999999998,
442,443,Decrease Desire,Prunes_5_1c.jpg,-2.0,1,1,1,1.0,104,2.4065531164160348,0.0,-2.2897777777777777,-2.555,-2.2686250418854015
443,444,Decrease Desire,Snickers_2_1Bar.jpg,-2.0,1,1,1,1.0,104,2.195906967936025,0.0,-2.2897777777777777,-2.555,-2.2686250418854015
444,445,Decrease Desire,Pringles_2_3Chips.jpg,1.0,5,6,1,3.0,104,0.8943222594170948,1.0,2.7102222222222223,-2.555,-0.2686250418854015
445,446,Decrease Desire,SlimStyles_6_2c.jpg,1.0,1,5,3,4.0,104,0.7313408155387151,1.0,1.7102222222222223,-0.5550000000000002,0.7313749581145985
446,447,Decrease Desire,AppleChips_5_1c..jpg,-2.0,1,1,1,1.0,104,0.7024118451663526,0.0,-2.2897777777777777,-2.555,-2.2686250418854015
447,448,Decrease Desire,FibreBrownies_3_2bars.jpg,-1.0,1,5,4,2.0,104,1.454685387572681,0.0,1.7102222222222223,0.44499999999999984,-1.2686250418854015
448,449,Decrease Desire,MangoChunks_2_3.jpg,-1.0,1,2,6,1.0,104,0.02578287463256856,0.0,-1.2897777777777777,2.445,-2.2686250418854015
449,450,Decrease Desire,RitzCrackers_5_15Crackers.jpg,-1.0,1,1,1,2.0,104,0.02671601204201579,0.0,-2.2897777777777777,-2.555,-1.2686250418854015
450,451,Focus on Healthiness,Cauliflower_6_0.5bag.jpg,-2.0,1,1,6,4.0,104,0.9591110191176996,0.0,-2.2897777777777777,2.445,0.7313749581145985
451,452,Focus on Healthiness,GreenBeans_4_.5pck.jpg,-2.0,1,1,6,1.0,104,0.8781923534625093,0.0,-2.2897777777777777,2.445,-2.2686250418854015
452,453,Focus on Healthiness,VanillaGreekYogurt_4_1cup.jpg,-2.0,1,1,6,1.0,104,0.6967434559264802,0.0,-2.2897777777777777,2.445,-2.2686250418854015
453,454,Focus on Healthiness,OikosYogurt_3_2spoonfuls.jpg,-2.0,1,1,6,1.0,104,0.4402481295910548,0.0,-2.2897777777777777,2.445,-2.2686250418854015
454,455,Focus on Healthiness,Spinach_4_.5box.jpg,-2.0,1,1,6,1.0,104,0.9939490044562262,0.0,-2.2897777777777777,2.445,-2.2686250418854015
455,456,Focus on Healthiness,CannedArtichoke_2_2.jpg,,1,1,6,1.0,104,,,-2.2897777777777777,2.445,-2.2686250418854015
456,457,Focus on Healthiness,LaysClassic_3_8Chips.jpg,1.0,5,1,1,5.0,104,2.000551956625713,1.0,-2.2897777777777777,-2.555,1.7313749581145985
457,458,Focus on Healthiness,Shreddies_2_1T.jpg,-2.0,1,1,1,1.0,104,0.30756072235817555,0.0,-2.2897777777777777,-2.555,-2.2686250418854015
458,459,Focus on Healthiness,OikosYogurt_6_1c.jpg,-2.0,1,1,1,1.0,104,0.527017364394851,0.0,-2.2897777777777777,-2.555,-2.2686250418854015
459,460,Focus on Healthiness,AlmondMilk_2_0.25glass.jpg,-2.0,1,1,6,5.0,104,0.6620711145878886,0.0,-2.2897777777777777,2.445,1.7313749581145985
460,461,Focus on Healthiness,DriedApricots_5_0.75cup.jpg,-2.0,1,2,3,1.0,104,0.645985969582398,0.0,-1.2897777777777777,-0.5550000000000002,-2.2686250418854015
461,462,Focus on Healthiness,SkimMilk_4_1glass.jpg,-2.0,1,1,5,2.0,104,0.7761975548564806,0.0,-2.2897777777777777,1.4449999999999998,-1.2686250418854015
462,463,Focus on Healthiness,VanillaGreekYogurt_2_1spoon.jpg,-2.0,1,1,1,1.0,104,0.6619941371682216,0.0,-2.2897777777777777,-2.555,-2.2686250418854015
463,464,Focus on Healthiness,Fritos_2_5chips.jpg,1.0,6,1,1,1.0,104,1.0163220644099056,1.0,-2.2897777777777777,-2.555,-2.2686250418854015
464,465,Focus on Healthiness,FrozenPeas_6_0.5bag.jpg,-1.0,1,1,6,2.0,104,1.4919507276135846,0.0,-2.2897777777777777,2.445,-1.2686250418854015
465,466,Decrease Desire,FrozenBlueberries_3_1cup.jpg,-2.0,1,1,5,1.0,104,0.6851418180740438,0.0,-2.2897777777777777,1.4449999999999998,-2.2686250418854015
466,467,Decrease Desire,BabyFoodCarrots_5_1jar.jpg,-2.0,1,1,1,1.0,104,1.2684251160826534,0.0,-2.2897777777777777,-2.555,-2.2686250418854015
467,468,Decrease Desire,Mackerel_1_1fish.jpg,-2.0,1,1,1,1.0,104,0.6206216240461799,0.0,-2.2897777777777777,-2.555,-2.2686250418854015
468,469,Decrease Desire,Aero_3_1bar.jpg,1.0,6,5,1,6.0,104,0.6816028523826391,1.0,1.7102222222222223,-2.555,2.7313749581145985
469,470,Decrease Desire,Celery_4_0.5bunch.jpg,-2.0,1,1,6,1.0,104,0.4974779915864929,0.0,-2.2897777777777777,2.445,-2.2686250418854015
470,471,Decrease Desire,VegetableThins_5_25Chips.jpg,-2.0,1,1,6,1.0,104,1.0320998699389747,0.0,-2.2897777777777777,2.445,-2.2686250418854015
471,472,Decrease Desire,Bananas_2_0.5.jpg,-2.0,1,1,6,3.0,104,0.5936424632527633,0.0,-2.2897777777777777,2.445,-0.2686250418854015
472,473,Decrease Desire,MangoChunks_5_1cup.jpg,-2.0,1,2,6,2.0,104,0.7186309879107284,0.0,-1.2897777777777777,2.445,-1.2686250418854015
473,474,Decrease Desire,Almonds_4_40.jpg,-2.0,1,5,6,1.0,104,1.3144524824092514,0.0,1.7102222222222223,2.445,-2.2686250418854015
474,475,Decrease Desire,Almonds_2_10.jpg,-2.0,1,2,6,1.0,104,0.8659489519923227,0.0,-1.2897777777777777,2.445,-2.2686250418854015
475,476,Decrease Desire,NatureValleyChocolate_4_2bars.jpg,1.0,5,4,1,4.0,104,0.7088893526597531,1.0,0.7102222222222223,-2.555,0.7313749581145985
476,477,Decrease Desire,Caramilk_5_2bars.jpg,1.0,6,6,1,1.0,104,0.6471280864352593,1.0,2.7102222222222223,-2.555,-2.2686250418854015
477,478,Decrease Desire,BabyFoodCarrots_3_2Tbsp.jpg,-2.0,1,1,6,1.0,104,1.1207453581228035,0.0,-2.2897777777777777,2.445,-2.2686250418854015
478,479,Decrease Desire,RitzCrackers_2_3Crackers.jpg,-2.0,1,1,1,1.0,104,0.9666653552048956,0.0,-2.2897777777777777,-2.555,-2.2686250418854015
479,480,Decrease Desire,ClamJuice_1_1T.jpg,-2.0,1,4,1,1.0,104,0.6637366779104923,0.0,0.7102222222222223,-2.555,-2.2686250418854015
480,481,Respond Naturally,ChipsAhoy_2_.5cookie.jpg,2.0,6,5,1,6.0,104,1.1036942890132195,1.0,1.7102222222222223,-2.555,2.7313749581145985
481,482,Respond Naturally,GreenPepper_2_2pc.jpg,-2.0,1,1,6,3.0,104,0.7045438346540323,0.0,-2.2897777777777777,2.445,-0.2686250418854015
482,483,Respond Naturally,SunChips_2_3Chips.jpg,-1.0,1,2,1,4.0,104,2.9441745482981787,0.0,-1.2897777777777777,-2.555,0.7313749581145985
483,484,Respond Naturally,Tuna_2_1T.jpg,-2.0,1,1,6,1.0,104,0.6260108988572028,0.0,-2.2897777777777777,2.445,-2.2686250418854015
484,485,Respond Naturally,GreenApple_4_1.jpg,1.0,1,1,6,1.0,104,0.5318293085510959,1.0,-2.2897777777777777,2.445,-2.2686250418854015
485,486,Respond Naturally,Smartfood_2_8Chips.jpg,-2.0,6,4,5,6.0,104,0.4668495308069396,0.0,0.7102222222222223,1.4449999999999998,2.7313749581145985
486,487,Respond Naturally,ChipsAhoy_4_2cookies.jpg,2.0,6,1,1,6.0,104,0.5939121693372726,1.0,-2.2897777777777777,-2.555,2.7313749581145985
487,488,Respond Naturally,MnMPeanuts_4_45.jpg,-2.0,1,1,1,3.0,104,0.7745154556396301,0.0,-2.2897777777777777,-2.555,-0.2686250418854015
488,489,Respond Naturally,BrusselsSprouts_4_1Box.jpg,,4,1,5,5.0,104,,,-2.2897777777777777,1.4449999999999998,1.7313749581145985
489,490,Respond Naturally,HoneyNutCheerios_5_2cup.jpg,-2.0,1,1,3,1.0,104,0.6518764529464534,0.0,-2.2897777777777777,-0.5550000000000002,-2.2686250418854015
490,491,Respond Naturally,PureFit_2_0.5Bars.jpg,1.0,1,1,1,1.0,104,2.3333980513853017,1.0,-2.2897777777777777,-2.555,-2.2686250418854015
491,492,Respond Naturally,AllBranCereal_2_1tbsp.jpg,-2.0,1,1,1,1.0,104,0.5714558597173891,0.0,-2.2897777777777777,-2.555,-2.2686250418854015
492,493,Respond Naturally,RiceKrispiesCereal_7_2cups.jpg,-2.0,1,2,1,2.0,104,0.7667330383046647,0.0,-1.2897777777777777,-2.555,-1.2686250418854015
493,494,Respond Naturally,DriedHerring_1_1fish.jpg,-2.0,1,1,6,1.0,104,0.6226897507658578,0.0,-2.2897777777777777,2.445,-2.2686250418854015
494,495,Respond Naturally,ClifBar_2_0.5bar.jpg,-2.0,1,2,6,1.0,104,0.6722272875267663,0.0,-1.2897777777777777,2.445,-2.2686250418854015
495,496,Focus on Healthiness,Beets_5_1can.jpg,-2.0,1,1,6,1.0,104,0.5125701278520864,0.0,-2.2897777777777777,2.445,-2.2686250418854015
496,497,Focus on Healthiness,JuniorMints_4_1box.jpg,-2.0,5,1,1,2.0,104,0.09038574811711443,0.0,-2.2897777777777777,-2.555,-1.2686250418854015
497,498,Focus on Healthiness,CannedArtichoke_5_1can.jpg,-2.0,1,1,4,1.0,104,0.5023113183633541,0.0,-2.2897777777777777,0.44499999999999984,-2.2686250418854015
498,499,Focus on Healthiness,JuniorMints_2_9pc.jpg,-2.0,1,4,1,2.0,104,0.044971350143896416,0.0,0.7102222222222223,-2.555,-1.2686250418854015
499,500,Focus on Healthiness,MnMPlain_3_1tbsp.jpg,-2.0,1,4,1,1.0,104,0.7854419729992514,0.0,0.7102222222222223,-2.555,-2.2686250418854015
500,501,Focus on Healthiness,PopTartStrawberry_5_3tarts.jpg,-2.0,1,1,1,1.0,104,0.7342522726903553,0.0,-2.2897777777777777,-2.555,-2.2686250418854015
501,502,Focus on Healthiness,FrozenPeas_2_2tbsp.jpg,-2.0,1,1,1,1.0,104,2.0297842750514974,0.0,-2.2897777777777777,-2.555,-2.2686250418854015
502,503,Focus on Healthiness,Avocado_2_2pc.jpg,-2.0,1,1,6,3.0,104,3.0654071449898765,0.0,-2.2897777777777777,2.445,-0.2686250418854015
503,504,Focus on Healthiness,Strawberries_3_0.5bag.jpg,-2.0,1,2,1,1.0,104,0.6690375712496461,0.0,-1.2897777777777777,-2.555,-2.2686250418854015
504,505,Focus on Healthiness,IceCreamChocolate_1_1tsp.jpg,1.0,6,5,6,5.0,104,1.9936296907035285,1.0,1.7102222222222223,2.445,1.7313749581145985
505,506,Focus on Healthiness,IceCreamChocolate_4_3scoops.jpg,-2.0,6,6,1,5.0,104,3.4247691105047124,0.0,2.7102222222222223,-2.555,1.7313749581145985
506,507,Focus on Healthiness,Shreddies_5_2c.jpg,-2.0,1,1,1,2.0,104,0.5466984954036889,0.0,-2.2897777777777777,-2.555,-1.2686250418854015
507,508,Focus on Healthiness,SpeltCakes_5_4.jpg,-2.0,1,1,4,1.0,104,1.0491580665766378,0.0,-2.2897777777777777,0.44499999999999984,-2.2686250418854015
508,509,Focus on Healthiness,Spinach_2_.5c.jpg,-2.0,1,1,6,6.0,104,2.264067338706809,0.0,-2.2897777777777777,2.445,2.7313749581145985
509,510,Focus on Healthiness,SlicedTurkey_5_4slices.jpg,,5,6,1,5.0,104,,,2.7102222222222223,-2.555,1.7313749581145985
510,511,Decrease Desire,WaterChestnuts_5_0.5can.jpg,-2.0,1,1,6,1.0,104,0.4711460113467183,0.0,-2.2897777777777777,2.445,-2.2686250418854015
511,512,Decrease Desire,ProMax_2_0.25bar.jpg,-2.0,1,1,6,1.0,104,1.0464821033165208,0.0,-2.2897777777777777,2.445,-2.2686250418854015
512,513,Decrease Desire,YorkPeppermintPatties_2_3.jpg,1.0,1,4,5,4.0,104,0.7091670415757108,1.0,0.7102222222222223,1.4449999999999998,0.7313749581145985
513,514,Decrease Desire,VegetableThins_2_5Chips.jpg,-2.0,1,2,6,1.0,104,0.6171716100434423,0.0,-1.2897777777777777,2.445,-2.2686250418854015
514,515,Decrease Desire,Mars_4_2Bars.jpg,-1.0,1,1,1,1.0,104,1.3277436321150162,0.0,-2.2897777777777777,-2.555,-2.2686250418854015
515,516,Decrease Desire,RaisinBran_3_2tbsp.jpg,-2.0,1,6,2,6.0,104,1.451657038785925,0.0,2.7102222222222223,-1.5550000000000002,2.7313749581145985
516,517,Decrease Desire,Aero_1_1pc.jpg,2.0,6,5,1,6.0,104,1.9078654389086296,1.0,1.7102222222222223,-2.555,2.7313749581145985
517,518,Decrease Desire,FrozenBlueberries_1_1tbsp.jpg,-2.0,1,1,6,1.0,104,3.820924858067883,0.0,-2.2897777777777777,2.445,-2.2686250418854015
518,519,Decrease Desire,WaterChestnuts_3_8pc.jpg,-2.0,1,1,6,1.0,104,3.060287006039289,0.0,-2.2897777777777777,2.445,-2.2686250418854015
519,520,Decrease Desire,Celery_2_1stalk.jpg,-2.0,5,1,6,1.0,104,1.312653776658408,0.0,-2.2897777777777777,2.445,-2.2686250418854015
520,521,Decrease Desire,YorkPeppermintPatties_4_12.jpg,1.0,4,6,1,5.0,104,0.6727783888491103,1.0,2.7102222222222223,-2.555,1.7313749581145985
521,522,Decrease Desire,CornFlakes_6_2cups.jpg,-2.0,1,1,6,1.0,104,0.6326474930174301,0.0,-2.2897777777777777,2.445,-2.2686250418854015
522,523,Decrease Desire,HersheysKisses_2_5.jpg,-2.0,6,5,1,6.0,104,0.030591967777581882,0.0,1.7102222222222223,-2.555,2.7313749581145985
523,524,Decrease Desire,Bananas_3_1.jpg,-2.0,1,1,5,1.0,104,0.031193246970360636,0.0,-2.2897777777777777,1.4449999999999998,-2.2686250418854015
524,525,Decrease Desire,Caramilk_2_2pc.jpg,-2.0,5,5,1,4.0,104,1.5461964315545629,0.0,1.7102222222222223,-2.555,0.7313749581145985
525,526,Respond Naturally,RiceKrispiesCereal_3_2tbsp.jpg,-2.0,1,1,1,1.0,104,1.2447753713277052,0.0,-2.2897777777777777,-2.555,-2.2686250418854015
526,527,Respond Naturally,Tempeh_4_.5pack.jpg,-2.0,1,1,1,1.0,104,0.7630680577349267,0.0,-2.2897777777777777,-2.555,-2.2686250418854015
527,528,Respond Naturally,Doritos_2_3chips.jpg,1.0,1,4,1,2.0,104,1.8781016911671031,1.0,0.7102222222222223,-2.555,-1.2686250418854015
528,529,Respond Naturally,HoneyNutCheerios_2_2tbsp.jpg,1.0,1,1,1,1.0,104,1.2812518353384803,1.0,-2.2897777777777777,-2.555,-2.2686250418854015
529,530,Respond Naturally,SevenGrain_1_1.jpg,1.0,1,1,5,1.0,104,0.5362061877312954,1.0,-2.2897777777777777,1.4449999999999998,-2.2686250418854015
530,531,Respond Naturally,Triscuit_2_2crackers.jpg,1.0,1,1,1,1.0,104,0.02829604490398196,1.0,-2.2897777777777777,-2.555,-2.2686250418854015
531,532,Respond Naturally,GreenPepper_6_1pepper.jpg,-2.0,1,1,6,1.0,104,0.20978884807846046,0.0,-2.2897777777777777,2.445,-2.2686250418854015
532,533,Respond Naturally,MnMPeanuts_2_4.jpg,-2.0,1,5,1,1.0,104,1.7068029794245376,0.0,1.7102222222222223,-2.555,-2.2686250418854015
533,534,Respond Naturally,Cheerios_5_2c.jpg,-2.0,1,1,5,1.0,104,0.5277001826325431,0.0,-2.2897777777777777,1.4449999999999998,-2.2686250418854015
534,535,Respond Naturally,FruitCrisps_3_2bars.jpg,-2.0,1,1,1,1.0,104,0.6647579117125133,0.0,-2.2897777777777777,-2.555,-2.2686250418854015
535,536,Respond Naturally,Mentos_2_3pc.jpg,1.0,6,5,1,3.0,104,0.5386760225592298,1.0,1.7102222222222223,-2.555,-0.2686250418854015
536,537,Respond Naturally,DriedHerring_3_4fish.jpg,-2.0,1,1,1,1.0,104,0.6780137088207994,0.0,-2.2897777777777777,-2.555,-2.2686250418854015
537,538,Respond Naturally,Butternut_7_2cups.jpg,-2.0,1,2,6,1.0,104,0.4575184417917626,0.0,-1.2897777777777777,2.445,-2.2686250418854015
538,539,Respond Naturally,OatBran_4_1bowl.jpg,1.0,1,4,6,1.0,104,1.4186662264692131,1.0,0.7102222222222223,2.445,-2.2686250418854015
539,540,Respond Naturally,IceCreamVanilla_1_2tsp.jpg,1.0,5,6,1,5.0,104,1.3094124569979613,1.0,2.7102222222222223,-2.555,1.7313749581145985
0,1,Respond Naturally,WelchsFruitSnacks_1_1bag.jpg,1.0,6,6,3,5.0,105,1.1999925303480268,1.0,2.7102222222222223,-0.5550000000000002,1.7313749581145985
1,2,Respond Naturally,ChipsAhoy_4_2cookies.jpg,-1.0,3,3,2,5.0,105,1.2398043521270663,0.0,-0.2897777777777777,-1.5550000000000002,1.7313749581145985
2,3,Respond Naturally,FrozenBroccoli_6_0.5bag.jpg,2.0,5,6,6,6.0,105,1.2104990811185417,1.0,2.7102222222222223,2.445,2.7313749581145985
3,4,Respond Naturally,Reese_4_5Cup.jpg,1.0,1,4,2,4.0,105,0.8793460119750307,1.0,0.7102222222222223,-1.5550000000000002,0.7313749581145985
4,5,Respond Naturally,Asparagus_6_FullPack.jpg,2.0,5,3,5,6.0,105,0.8703673187310415,1.0,-0.2897777777777777,1.4449999999999998,2.7313749581145985
5,6,Respond Naturally,RedPepper_5_1pepper.jpg,-2.0,5,3,6,4.0,105,1.2460802856485316,0.0,-0.2897777777777777,2.445,0.7313749581145985
6,7,Respond Naturally,Cheetos_3_10pc.jpg,1.0,4,5,1,5.0,105,0.8083039156372251,1.0,1.7102222222222223,-2.555,1.7313749581145985
7,8,Respond Naturally,HoneyNutCheerios_5_2cup.jpg,-1.0,3,2,2,2.0,105,0.8966299893436371,0.0,-1.2897777777777777,-1.5550000000000002,-1.2686250418854015
8,9,Respond Naturally,RaisinBran_7_2cup.jpg,-1.0,1,2,3,2.0,105,1.397760700847357,0.0,-1.2897777777777777,-0.5550000000000002,-1.2686250418854015
9,10,Respond Naturally,WelchsFruitSnacks_3_4bags.jpg,1.0,6,5,3,6.0,105,0.8805722323941154,1.0,1.7102222222222223,-0.5550000000000002,2.7313749581145985
10,11,Respond Naturally,Cheerios_5_2c.jpg,1.0,2,4,4,6.0,105,0.7426416796342892,1.0,0.7102222222222223,0.44499999999999984,2.7313749581145985
11,12,Respond Naturally,GreenBeans_2_9beans.jpg,1.0,4,4,4,5.0,105,1.3068005768163855,1.0,0.7102222222222223,0.44499999999999984,1.7313749581145985
12,13,Respond Naturally,ClifBar_4_2bars.jpg,-1.0,3,2,2,4.0,105,0.9231347109043782,0.0,-1.2897777777777777,-1.5550000000000002,0.7313749581145985
13,14,Respond Naturally,Broccoli_4_1.5c.jpg,2.0,6,6,6,6.0,105,1.034114073566343,1.0,2.7102222222222223,2.445,2.7313749581145985
14,15,Respond Naturally,LuckyCharms_3_2tbsps.jpg,-1.0,3,2,2,2.0,105,1.3407361770086936,0.0,-1.2897777777777777,-1.5550000000000002,-1.2686250418854015
15,16,Focus on Healthiness,Spinach_4_.5box.jpg,2.0,4,3,6,4.0,105,0.9579871966743668,1.0,-0.2897777777777777,2.445,0.7313749581145985
16,17,Focus on Healthiness,Spinach_2_.5c.jpg,2.0,5,2,6,3.0,105,0.6069525927960058,1.0,-1.2897777777777777,2.445,-0.2686250418854015
17,18,Focus on Healthiness,Shreddies_5_2c.jpg,-1.0,2,3,3,2.0,105,0.9929317701416948,0.0,-0.2897777777777777,-0.5550000000000002,-1.2686250418854015
18,19,Focus on Healthiness,PureFit_2_0.5Bars.jpg,-1.0,1,1,2,2.0,105,1.484546942774614,0.0,-2.2897777777777777,-1.5550000000000002,-1.2686250418854015
19,20,Focus on Healthiness,FibreBrownies_2_1bar.jpg,-1.0,2,2,2,2.0,105,1.1009358162991705,0.0,-1.2897777777777777,-1.5550000000000002,-1.2686250418854015
20,21,Focus on Healthiness,HoneyNutCheerios_5_2cup.jpg,-2.0,3,2,2,2.0,105,0.9661507854825686,0.0,-1.2897777777777777,-1.5550000000000002,-1.2686250418854015
21,22,Focus on Healthiness,Caramilk_5_2bars.jpg,-2.0,6,6,1,6.0,105,1.4798866779610762,0.0,2.7102222222222223,-2.555,2.7313749581145985
22,23,Focus on Healthiness,NatureValleyChocolate_4_2bars.jpg,-1.0,2,2,2,,105,1.6441990736493608,0.0,-1.2897777777777777,-1.5550000000000002,
23,24,Focus on Healthiness,Fritos_2_5chips.jpg,-1.0,3,2,2,3.0,105,1.1295135089521864,0.0,-1.2897777777777777,-1.5550000000000002,-0.2686250418854015
24,25,Focus on Healthiness,Celery_4_0.5bunch.jpg,1.0,4,3,6,4.0,105,0.6565707567106074,1.0,-0.2897777777777777,2.445,0.7313749581145985
25,26,Focus on Healthiness,RiceKrispiesCereal_7_2cups.jpg,-1.0,3,3,3,3.0,105,1.0293617210536468,0.0,-0.2897777777777777,-0.5550000000000002,-0.2686250418854015
26,27,Focus on Healthiness,PopTartStrawberry_5_3tarts.jpg,-2.0,1,1,1,1.0,105,1.243197627045447,0.0,-2.2897777777777777,-2.555,-2.2686250418854015
27,28,Focus on Healthiness,SkittlesSour_6_0.5pack.jpg,-1.0,6,6,1,5.0,105,1.3268312194977625,0.0,2.7102222222222223,-2.555,1.7313749581145985
28,29,Focus on Healthiness,GreenApple_4_1.jpg,2.0,5,6,6,6.0,105,0.7988816048691658,1.0,2.7102222222222223,2.445,2.7313749581145985
29,30,Focus on Healthiness,BrusselsSprouts_2_3.jpg,1.0,4,4,4,5.0,105,1.296817186815133,1.0,0.7102222222222223,0.44499999999999984,1.7313749581145985
30,31,Decrease Desire,CornFlakes_3_2tbsps.jpg,-1.0,2,1,3,3.0,105,1.6864211412830628,0.0,-2.2897777777777777,-0.5550000000000002,-0.2686250418854015
31,32,Decrease Desire,CannedArtichoke_2_2.jpg,-1.0,1,1,4,1.0,105,2.4586953881453155,0.0,-2.2897777777777777,0.44499999999999984,-2.2686250418854015
32,33,Decrease Desire,EnglishCucumber_2_2pc.jpg,-1.0,5,4,6,5.0,105,3.2524816637132967,0.0,0.7102222222222223,2.445,1.7313749581145985
33,34,Decrease Desire,Doritos_2_3chips.jpg,-1.0,6,6,1,6.0,105,2.772008247407939,0.0,2.7102222222222223,-2.555,2.7313749581145985
34,35,Decrease Desire,CheeseNips_5_1c.jpg,-2.0,3,4,2,4.0,105,2.4112553976792697,0.0,0.7102222222222223,-1.5550000000000002,0.7313749581145985
35,36,Decrease Desire,SevenGrain_1_1.jpg,-2.0,1,2,4,2.0,105,1.1862623398947107,0.0,-1.2897777777777777,0.44499999999999984,-1.2686250418854015
36,37,Decrease Desire,SevenGrain_3_5.jpg,1.0,2,2,2,2.0,105,2.501304623257965,1.0,-1.2897777777777777,-1.5550000000000002,-1.2686250418854015
37,38,Decrease Desire,FruitCrisps_1_0.5bar.jpg,-1.0,2,1,1,1.0,105,1.2829572752989409,0.0,-2.2897777777777777,-2.555,-2.2686250418854015
38,39,Decrease Desire,ClamJuice_1_1T.jpg,-2.0,1,1,2,1.0,105,2.420719618328804,0.0,-2.2897777777777777,-1.5550000000000002,-2.2686250418854015
39,40,Decrease Desire,PCChipCookie_2_0.5cookie.jpg,-2.0,4,2,2,6.0,105,1.5282828979734404,0.0,-1.2897777777777777,-1.5550000000000002,2.7313749581145985
40,41,Decrease Desire,OatmealSquares_7_2Cups.jpg,-2.0,2,1,2,2.0,105,2.108026284053267,0.0,-2.2897777777777777,-1.5550000000000002,-1.2686250418854015
41,42,Decrease Desire,AppleChips_5_1c..jpg,1.0,6,6,2,6.0,105,1.9658414506402548,1.0,2.7102222222222223,-1.5550000000000002,2.7313749581145985
42,43,Decrease Desire,Nutella_1_0.5spoon.jpg,-1.0,2,4,2,6.0,105,1.9797914541477442,0.0,0.7102222222222223,-1.5550000000000002,2.7313749581145985
43,44,Decrease Desire,MangoChunks_2_3.jpg,-1.0,3,6,2,5.0,105,2.5277087040840343,0.0,2.7102222222222223,-1.5550000000000002,1.7313749581145985
44,45,Decrease Desire,RitzCrackers_2_3Crackers.jpg,-2.0,3,3,2,2.0,105,1.294308010831628,0.0,-0.2897777777777777,-1.5550000000000002,-1.2686250418854015
45,46,Respond Naturally,FrozenBroccoli_2_3chunks.jpg,2.0,6,6,6,6.0,105,0.7909917132483315,1.0,2.7102222222222223,2.445,2.7313749581145985
46,47,Respond Naturally,RomaineLettuce_2_3leaves.jpg,2.0,2,4,5,4.0,105,1.3340343022409795,1.0,0.7102222222222223,1.4449999999999998,0.7313749581145985
47,48,Respond Naturally,AllBranBar_1_.25bar.jpg,-2.0,1,2,2,2.0,105,0.8902785039936134,0.0,-1.2897777777777777,-1.5550000000000002,-1.2686250418854015
48,49,Respond Naturally,Almonds_2_10.jpg,1.0,4,4,4,6.0,105,1.969348195850216,1.0,0.7102222222222223,0.44499999999999984,2.7313749581145985
49,50,Respond Naturally,HoneyNutCheerios_2_2tbsp.jpg,-2.0,2,2,2,4.0,105,0.8448393540065808,0.0,-1.2897777777777777,-1.5550000000000002,0.7313749581145985
50,51,Respond Naturally,Beets_5_1can.jpg,-2.0,2,2,4,2.0,105,0.8350666538181031,0.0,-1.2897777777777777,0.44499999999999984,-1.2686250418854015
51,52,Respond Naturally,Snickers_3_2Bars.jpg,2.0,6,6,1,6.0,105,0.7103571007028222,1.0,2.7102222222222223,-2.555,2.7313749581145985
52,53,Respond Naturally,BabyFoodSweetPotatos_5_1jar.jpg,-2.0,1,2,2,1.0,105,1.224425706324837,0.0,-1.2897777777777777,-1.5550000000000002,-2.2686250418854015
53,54,Respond Naturally,Prunes_5_1c.jpg,-1.0,2,1,3,1.0,105,0.926857562852092,0.0,-2.2897777777777777,-0.5550000000000002,-2.2686250418854015
54,55,Respond Naturally,ProMax_2_0.25bar.jpg,-1.0,2,1,2,2.0,105,0.8755441869852802,0.0,-2.2897777777777777,-1.5550000000000002,-1.2686250418854015
55,56,Respond Naturally,FrozenPeas_2_2tbsp.jpg,-1.0,4,3,4,4.0,105,0.7933902699514874,0.0,-0.2897777777777777,0.44499999999999984,0.7313749581145985
56,57,Respond Naturally,AllBranBar_3_1bar.jpg,-1.0,2,2,2,2.0,105,2.231506195535076,0.0,-1.2897777777777777,-1.5550000000000002,-1.2686250418854015
57,58,Respond Naturally,JuniorMints_4_1box.jpg,-1.0,3,4,2,2.0,105,2.1859706813293087,0.0,0.7102222222222223,-1.5550000000000002,-1.2686250418854015
58,59,Respond Naturally,Almonds_4_40.jpg,1.0,6,3,3,5.0,105,0.9166401047341424,1.0,-0.2897777777777777,-0.5550000000000002,1.7313749581145985
59,60,Respond Naturally,JuniorMints_2_9pc.jpg,-1.0,2,2,2,3.0,105,1.3636423507623476,0.0,-1.2897777777777777,-1.5550000000000002,-0.2686250418854015
60,61,Focus on Healthiness,VegetableThins_5_25Chips.jpg,-1.0,3,3,3,4.0,105,1.0173589589930998,0.0,-0.2897777777777777,-0.5550000000000002,0.7313749581145985
61,62,Focus on Healthiness,VegetableThins_2_5Chips.jpg,-1.0,3,1,2,1.0,105,0.6303933313683956,0.0,-2.2897777777777777,-1.5550000000000002,-2.2686250418854015
62,63,Focus on Healthiness,FrozenOkra_5_0.5box.jpg,2.0,4,4,4,4.0,105,0.7868104185117772,1.0,0.7102222222222223,0.44499999999999984,0.7313749581145985
63,64,Focus on Healthiness,PureFit_4_2Bars.jpg,-1.0,1,2,2,2.0,105,1.1989960558039456,0.0,-1.2897777777777777,-1.5550000000000002,-1.2686250418854015
64,65,Focus on Healthiness,RufflesSourCreamOnion_5_20chips.jpg,2.0,6,6,2,6.0,105,0.7263045234731179,1.0,2.7102222222222223,-1.5550000000000002,2.7313749581145985
65,66,Focus on Healthiness,RufflesSourCreamOnion_3_5chips.jpg,-1.0,6,6,1,6.0,105,0.6777298300858092,0.0,2.7102222222222223,-2.555,2.7313749581145985
66,67,Focus on Healthiness,OikosYogurt_3_2spoonfuls.jpg,1.0,3,3,3,5.0,105,2.2257579844026623,1.0,-0.2897777777777777,-0.5550000000000002,1.7313749581145985
67,68,Focus on Healthiness,DriedHerring_3_4fish.jpg,1.0,1,1,1,1.0,105,1.9686194770902148,1.0,-2.2897777777777777,-2.555,-2.2686250418854015
68,69,Focus on Healthiness,Onion_2_1ring.jpg,1.0,3,4,6,3.0,105,1.1920789753230563,1.0,0.7102222222222223,2.445,-0.2686250418854015
69,70,Focus on Healthiness,Aero_1_1pc.jpg,-1.0,6,6,3,6.0,105,0.9381401591890608,0.0,2.7102222222222223,-0.5550000000000002,2.7313749581145985
70,71,Focus on Healthiness,Shreddies_2_1T.jpg,-1.0,2,1,3,3.0,105,3.578991574117936,0.0,-2.2897777777777777,-0.5550000000000002,-0.2686250418854015
71,72,Focus on Healthiness,BrusselsSprouts_4_1Box.jpg,1.0,4,4,4,5.0,105,0.8157863975911823,1.0,0.7102222222222223,0.44499999999999984,1.7313749581145985
72,73,Focus on Healthiness,GreenApple_2_1slice.jpg,1.0,4,5,6,5.0,105,0.8737708572934935,1.0,1.7102222222222223,2.445,1.7313749581145985
73,74,Focus on Healthiness,Celery_2_1stalk.jpg,1.0,4,2,6,4.0,105,0.6374310553937903,1.0,-1.2897777777777777,2.445,0.7313749581145985
74,75,Focus on Healthiness,Raspberries_4_.5c.jpg,-1.0,3,3,4,4.0,105,0.7483847589437573,0.0,-0.2897777777777777,0.44499999999999984,0.7313749581145985
75,76,Decrease Desire,FrozenCorn_2_0.5cup.jpg,-1.0,2,2,4,3.0,105,1.1214859134333892,0.0,-1.2897777777777777,0.44499999999999984,-0.2686250418854015
76,77,Decrease Desire,FrozenPeaches_2_3Slices.jpg,1.0,4,5,4,6.0,105,1.5199656395989225,1.0,1.7102222222222223,0.44499999999999984,2.7313749581145985
77,78,Decrease Desire,CornFlakes_6_2cups.jpg,-1.0,3,2,2,3.0,105,1.6847615669848892,0.0,-1.2897777777777777,-1.5550000000000002,-0.2686250418854015
78,79,Decrease Desire,Bananas_3_1.jpg,1.0,4,5,5,5.0,105,1.7202974404181075,1.0,1.7102222222222223,1.4449999999999998,1.7313749581145985
79,80,Decrease Desire,Bananas_2_0.5.jpg,-1.0,4,5,2,5.0,105,0.7603952187382674,0.0,1.7102222222222223,-1.5550000000000002,1.7313749581145985
80,81,Decrease Desire,Triscuit_5_30crackers.jpg,-1.0,2,2,2,3.0,105,1.44496063607221,0.0,-1.2897777777777777,-1.5550000000000002,-0.2686250418854015
81,82,Decrease Desire,Triscuit_2_2crackers.jpg,-1.0,2,2,3,3.0,105,2.192385174052106,0.0,-1.2897777777777777,-0.5550000000000002,-0.2686250418854015
82,83,Decrease Desire,OatBran_2_2T.jpg,-2.0,2,2,3,4.0,105,2.2722970549612,0.0,-1.2897777777777777,-0.5550000000000002,0.7313749581145985
83,84,Decrease Desire,Avocado_2_2pc.jpg,2.0,6,6,4,6.0,105,2.4058840903817327,1.0,2.7102222222222223,0.44499999999999984,2.7313749581145985
84,85,Decrease Desire,FrozenPeaches_5_1.5Cups.jpg,1.0,4,4,5,6.0,105,1.8393702569846937,1.0,0.7102222222222223,1.4449999999999998,2.7313749581145985
85,86,Decrease Desire,OatmealSquares_3_2tbsp.jpg,-1.0,2,1,2,2.0,105,1.1101149357127724,0.0,-2.2897777777777777,-1.5550000000000002,-1.2686250418854015
86,87,Decrease Desire,FrootLoops_2_2T.jpg,-2.0,3,2,2,4.0,105,1.272100050006884,0.0,-1.2897777777777777,-1.5550000000000002,0.7313749581145985
87,88,Decrease Desire,SpeltCakes_2_0.5.jpg,-2.0,1,2,2,4.0,105,0.7523975588492249,0.0,-1.2897777777777777,-1.5550000000000002,0.7313749581145985
88,89,Decrease Desire,GoldfishBits_3_0.25Cups.jpg,-2.0,3,1,3,4.0,105,2.21468265666499,0.0,-2.2897777777777777,-0.5550000000000002,0.7313749581145985
89,90,Decrease Desire,KashiBars_1_0.5bar.jpg,-1.0,1,3,2,2.0,105,0.9507678631607632,0.0,-0.2897777777777777,-1.5550000000000002,-1.2686250418854015
90,91,Focus on Healthiness,YorkPeppermintPatties_2_3.jpg,-2.0,2,4,2,4.0,105,1.4200992380383468,0.0,0.7102222222222223,-1.5550000000000002,0.7313749581145985
91,92,Focus on Healthiness,FrozenBlueberries_1_1tbsp.jpg,1.0,4,3,4,5.0,105,1.2545446562617144,1.0,-0.2897777777777777,0.44499999999999984,1.7313749581145985
92,93,Focus on Healthiness,OikosYogurt_6_1c.jpg,1.0,3,2,3,6.0,105,1.026785261178702,1.0,-1.2897777777777777,-0.5550000000000002,2.7313749581145985
93,94,Focus on Healthiness,DriedHerring_1_1fish.jpg,-2.0,1,1,3,1.0,105,0.6285139440169587,0.0,-2.2897777777777777,-0.5550000000000002,-2.2686250418854015
94,95,Focus on Healthiness,Skittles_3_14pieces.jpg,-1.0,6,6,1,6.0,105,0.917867180457506,0.0,2.7102222222222223,-2.555,2.7313749581145985
95,96,Focus on Healthiness,Raspberries_5_.5bag.jpg,1.0,4,3,4,5.0,105,1.056195449441475,1.0,-0.2897777777777777,0.44499999999999984,1.7313749581145985
96,97,Focus on Healthiness,HoneyNutCheerios_2_2tbsp.jpg,-2.0,2,2,2,4.0,105,1.0571702105698932,0.0,-1.2897777777777777,-1.5550000000000002,0.7313749581145985
97,98,Focus on Healthiness,SkittlesSour_3_8pieces.jpg,-2.0,6,6,2,6.0,105,0.8954701975126227,0.0,2.7102222222222223,-1.5550000000000002,2.7313749581145985
98,99,Focus on Healthiness,LaysClassic_4_16Chips.jpg,-1.0,5,6,1,5.0,105,0.7183541903896185,0.0,2.7102222222222223,-2.555,1.7313749581145985
99,100,Focus on Healthiness,Tempeh_2_1Tbsp.jpg,-1.0,1,2,2,3.0,105,1.9581154922307176,0.0,-1.2897777777777777,-1.5550000000000002,-0.2686250418854015
100,101,Focus on Healthiness,YorkPeppermintPatties_4_12.jpg,-1.0,2,5,2,4.0,105,1.025435877025302,0.0,1.7102222222222223,-1.5550000000000002,0.7313749581145985
101,102,Focus on Healthiness,Fritos_5_1c.jpg,-1.0,3,3,2,3.0,105,1.0112928599810402,0.0,-0.2897777777777777,-1.5550000000000002,-0.2686250418854015
102,103,Focus on Healthiness,SkittlesSour_6_0.5pack.jpg,-1.0,6,6,1,5.0,105,0.8060179739222804,0.0,2.7102222222222223,-2.555,1.7313749581145985
103,104,Focus on Healthiness,Skittles_6_0.75pack.jpg,-1.0,6,6,2,6.0,105,0.9135342118634072,0.0,2.7102222222222223,-1.5550000000000002,2.7313749581145985
104,105,Focus on Healthiness,BabyFoodCarrots_5_1jar.jpg,-2.0,1,2,4,2.0,105,1.287681972991777,0.0,-1.2897777777777777,0.44499999999999984,-1.2686250418854015
105,106,Respond Naturally,DriedApricots_2_2.jpg,1.0,2,2,2,4.0,105,1.0279587378681754,1.0,-1.2897777777777777,-1.5550000000000002,0.7313749581145985
106,107,Respond Naturally,Reese_1_1Cup.jpg,1.0,4,2,1,3.0,105,1.5843700089462798,1.0,-1.2897777777777777,-2.555,-0.2686250418854015
107,108,Respond Naturally,Beets_2_5pc.jpg,1.0,2,2,1,2.0,105,2.2374702283032093,1.0,-1.2897777777777777,-2.555,-1.2686250418854015
108,109,Respond Naturally,Asparagus_3_7.jpg,2.0,6,6,6,6.0,105,1.0318791649724517,1.0,2.7102222222222223,2.445,2.7313749581145985
109,110,Respond Naturally,ClifBar_2_0.5bar.jpg,-1.0,3,2,2,5.0,105,1.1875338914096574,0.0,-1.2897777777777777,-1.5550000000000002,1.7313749581145985
110,111,Respond Naturally,AlmondMilk_2_0.25glass.jpg,-1.0,1,1,4,3.0,105,1.2190906068835832,0.0,-2.2897777777777777,0.44499999999999984,-0.2686250418854015
111,112,Respond Naturally,Mackerel_3_4fish.jpg,-1.0,1,1,3,1.0,105,0.8319450803783184,0.0,-2.2897777777777777,-0.5550000000000002,-2.2686250418854015
112,113,Respond Naturally,FrozenPeas_6_0.5bag.jpg,-1.0,4,2,6,5.0,105,1.9084354613487449,0.0,-1.2897777777777777,2.445,1.7313749581145985
113,114,Respond Naturally,GreenPepper_2_2pc.jpg,1.0,4,5,6,4.0,105,0.9329151088259096,1.0,1.7102222222222223,2.445,0.7313749581145985
114,115,Respond Naturally,GreenBeans_4_.5pck.jpg,1.0,2,4,6,6.0,105,0.8424370909870049,1.0,0.7102222222222223,2.445,2.7313749581145985
115,116,Respond Naturally,SlimStyles_2_2Tbsp.jpg,-1.0,1,1,2,3.0,105,0.7915656220366145,0.0,-2.2897777777777777,-1.5550000000000002,-0.2686250418854015
116,117,Respond Naturally,Cheetos_6_2c.jpg,1.0,5,3,1,5.0,105,1.1370558621656528,1.0,-0.2897777777777777,-2.555,1.7313749581145985
117,118,Respond Naturally,ProMax_4_1bar.jpg,-1.0,2,2,2,2.0,105,0.8316576983315827,0.0,-1.2897777777777777,-1.5550000000000002,-1.2686250418854015
118,119,Respond Naturally,GreenPepper_6_1pepper.jpg,1.0,4,4,5,6.0,105,0.8769175196421202,1.0,0.7102222222222223,1.4449999999999998,2.7313749581145985
119,120,Respond Naturally,Snickers_2_1Bar.jpg,2.0,6,6,1,5.0,105,0.8705552004466881,1.0,2.7102222222222223,-2.555,1.7313749581145985
120,121,Decrease Desire,AllBranCereal_2_1tbsp.jpg,-1.0,2,2,2,2.0,105,1.6576475840811329,0.0,-1.2897777777777777,-1.5550000000000002,-1.2686250418854015
121,122,Decrease Desire,CannedArtichoke_5_1can.jpg,-1.0,2,1,3,2.0,105,0.6203714526991462,0.0,-2.2897777777777777,-0.5550000000000002,-1.2686250418854015
122,123,Decrease Desire,Butternut_3_0.3cup.jpg,-1.0,2,1,4,2.0,105,1.169361959429807,0.0,-2.2897777777777777,0.44499999999999984,-1.2686250418854015
123,124,Decrease Desire,Smartfood_4_100Chips.jpg,-1.0,6,6,2,5.0,105,2.527606352739894,0.0,2.7102222222222223,-1.5550000000000002,1.7313749581145985
124,125,Decrease Desire,Strawberries_2_0.5c.jpg,1.0,4,4,5,5.0,105,1.4936573527893415,1.0,0.7102222222222223,1.4449999999999998,1.7313749581145985
125,126,Decrease Desire,FrootLoops_6_2Cups.jpg,-1.0,2,1,1,5.0,105,0.8991277612767591,0.0,-2.2897777777777777,-2.555,1.7313749581145985
126,127,Decrease Desire,VanillaGreekYogurt_4_1cup.jpg,-1.0,2,2,2,4.0,105,1.9276903435638812,0.0,-1.2897777777777777,-1.5550000000000002,0.7313749581145985
127,128,Decrease Desire,WaterChestnuts_5_0.5can.jpg,-1.0,2,1,4,2.0,105,0.9062800959991364,0.0,-2.2897777777777777,0.44499999999999984,-1.2686250418854015
128,129,Decrease Desire,GoldfishBits_5_0.75Cups.jpg,-1.0,3,2,3,2.0,105,1.1596293227767092,0.0,-1.2897777777777777,-0.5550000000000002,-1.2686250418854015
129,130,Decrease Desire,BBQCrisps_6_1cup.jpg,-1.0,3,2,1,4.0,105,1.4225491129645889,0.0,-1.2897777777777777,-2.555,0.7313749581145985
130,131,Decrease Desire,Doritos_5_20chips.jpg,2.0,6,6,1,6.0,105,1.4775890470946251,1.0,2.7102222222222223,-2.555,2.7313749581145985
131,132,Decrease Desire,SpeltCakes_5_4.jpg,-1.0,3,3,2,4.0,105,1.8985512865765488,0.0,-0.2897777777777777,-1.5550000000000002,0.7313749581145985
132,133,Decrease Desire,OatBran_4_1bowl.jpg,-1.0,1,2,4,4.0,105,1.0793750352804636,0.0,-1.2897777777777777,0.44499999999999984,0.7313749581145985
133,134,Decrease Desire,EnglishCucumber_5_0.5cuc.JPG,2.0,5,5,6,6.0,105,1.2250295507428746,1.0,1.7102222222222223,2.445,2.7313749581145985
134,135,Decrease Desire,AppleChips_2_3chips.jpg,1.0,5,3,3,6.0,105,2.87396700694444,1.0,-0.2897777777777777,-0.5550000000000002,2.7313749581145985
135,136,Decrease Desire,Smartfood_2_8Chips.jpg,1.0,4,6,2,5.0,105,1.6771821506099511,1.0,2.7102222222222223,-1.5550000000000002,1.7313749581145985
136,137,Decrease Desire,Strawberries_3_0.5bag.jpg,-1.0,4,1,4,6.0,105,1.3497801584371698,0.0,-2.2897777777777777,0.44499999999999984,2.7313749581145985
137,138,Decrease Desire,Avocado_5_1avacado.jpg,-1.0,3,3,4,6.0,105,1.1503270396278822,0.0,-0.2897777777777777,0.44499999999999984,2.7313749581145985
138,139,Decrease Desire,PCChipCookie_5_4cookie.jpg,-1.0,1,4,2,5.0,105,2.4357772401399416,0.0,0.7102222222222223,-1.5550000000000002,1.7313749581145985
139,140,Decrease Desire,FrozenCorn_4_2cups.jpg,-1.0,3,2,4,2.0,105,1.4146552299262112,0.0,-1.2897777777777777,0.44499999999999984,-1.2686250418854015
140,141,Decrease Desire,MangoChunks_5_1cup.jpg,-1.0,3,2,4,4.0,105,3.1573681848694832,0.0,-1.2897777777777777,0.44499999999999984,0.7313749581145985
141,142,Decrease Desire,WaterChestnuts_3_8pc.jpg,-1.0,2,1,2,2.0,105,0.8351633031379606,0.0,-2.2897777777777777,-1.5550000000000002,-1.2686250418854015
142,143,Decrease Desire,FruitCrisps_3_2bars.jpg,-2.0,2,1,1,1.0,105,1.1633878123784598,0.0,-2.2897777777777777,-2.555,-2.2686250418854015
143,144,Decrease Desire,Nutella_4_3spoons.jpg,-1.0,4,4,2,5.0,105,2.2233243602468065,0.0,0.7102222222222223,-1.5550000000000002,1.7313749581145985
144,145,Decrease Desire,VanillaGreekYogurt_2_1spoon.jpg,-2.0,2,2,4,5.0,105,1.0455092848915228,0.0,-1.2897777777777777,0.44499999999999984,1.7313749581145985
145,146,Decrease Desire,AllBranCereal_6_1cup.jpg,-2.0,2,2,2,1.0,105,0.7421838070476952,0.0,-1.2897777777777777,-1.5550000000000002,-2.2686250418854015
146,147,Decrease Desire,Butternut_7_2cups.jpg,-1.0,2,2,4,2.0,105,1.2171194169341106,0.0,-1.2897777777777777,0.44499999999999984,-1.2686250418854015
147,148,Decrease Desire,KashiBars_4_3bars.jpg,-1.0,1,1,3,2.0,105,0.9436674168637182,0.0,-2.2897777777777777,-0.5550000000000002,-1.2686250418854015
148,149,Decrease Desire,CheeseNips_2_5nips.jpg,-1.0,2,2,2,4.0,105,3.150233526423108,0.0,-1.2897777777777777,-1.5550000000000002,0.7313749581145985
149,150,Decrease Desire,RitzCrackers_5_15Crackers.jpg,-1.0,2,4,2,4.0,105,0.9637097486947824,0.0,0.7102222222222223,-1.5550000000000002,0.7313749581145985
150,151,Focus on Healthiness,RiceKrispiesCereal_3_2tbsp.jpg,-1.0,3,2,1,4.0,105,1.4512195403904116,0.0,-1.2897777777777777,-2.555,0.7313749581145985
151,152,Focus on Healthiness,BabyFoodCarrots_3_2Tbsp.jpg,1.0,2,2,4,2.0,105,1.3475763258775257,1.0,-1.2897777777777777,0.44499999999999984,-1.2686250418854015
152,153,Focus on Healthiness,FrozenBlueberries_3_1cup.jpg,1.0,3,4,4,4.0,105,1.1110355276059636,1.0,0.7102222222222223,0.44499999999999984,0.7313749581145985
153,154,Focus on Healthiness,Aero_3_1bar.jpg,-1.0,6,6,1,6.0,105,1.0606746749699596,0.0,2.7102222222222223,-2.555,2.7313749581145985
154,155,Focus on Healthiness,PopTartStrawberry_2_0.5tart.jpg,-1.0,1,1,1,1.0,105,1.2517985611511904,0.0,-2.2897777777777777,-2.555,-2.2686250418854015
155,156,Focus on Healthiness,Onion_4_0.25.jpg,1.0,3,4,5,4.0,105,0.9445546519118578,1.0,0.7102222222222223,1.4449999999999998,0.7313749581145985
156,157,Focus on Healthiness,NatureValleyChocolate_1_0.25bar.jpg,-1.0,1,2,3,2.0,105,1.0389667817144073,0.0,-1.2897777777777777,-0.5550000000000002,-1.2686250418854015
157,158,Focus on Healthiness,Tuna_2_1T.jpg,1.0,1,2,3,2.0,105,1.165418018284072,1.0,-1.2897777777777777,-0.5550000000000002,-1.2686250418854015
158,159,Focus on Healthiness,TofuDessert_4_1pck.jpg,-1.0,2,2,3,1.0,105,2.3077756230459268,0.0,-1.2897777777777777,-0.5550000000000002,-2.2686250418854015
159,160,Focus on Healthiness,LaysClassic_3_8Chips.jpg,-1.0,6,6,1,5.0,105,1.0101424764925468,0.0,2.7102222222222223,-2.555,1.7313749581145985
160,161,Focus on Healthiness,SkittlesSour_3_8pieces.jpg,-1.0,6,6,2,6.0,105,0.8106431712840276,0.0,2.7102222222222223,-1.5550000000000002,2.7313749581145985
161,162,Focus on Healthiness,Tempeh_4_.5pack.jpg,-2.0,2,1,2,1.0,105,0.8601869237745632,0.0,-2.2897777777777777,-1.5550000000000002,-2.2686250418854015
162,163,Focus on Healthiness,FrozenOkra_2_2pc.jpg,1.0,2,4,4,4.0,105,0.9807473985938486,1.0,0.7102222222222223,0.44499999999999984,0.7313749581145985
163,164,Focus on Healthiness,FibreBrownies_3_2bars.jpg,-1.0,2,3,1,2.0,105,1.1443382030520295,0.0,-0.2897777777777777,-2.555,-1.2686250418854015
164,165,Focus on Healthiness,Tuna_4_1can.jpg,1.0,1,1,3,1.0,105,2.050934761424287,1.0,-2.2897777777777777,-0.5550000000000002,-2.2686250418854015
165,166,Respond Naturally,Broccoli_1_1pc.jpg,2.0,6,6,6,6.0,105,0.6962311897332256,1.0,2.7102222222222223,2.445,2.7313749581145985
166,167,Respond Naturally,SlicedTurkey_2_0.5slice.jpg,-1.0,3,2,2,3.0,105,1.1266171654897337,0.0,-1.2897777777777777,-1.5550000000000002,-0.2686250418854015
167,168,Respond Naturally,Mackerel_1_1fish.jpg,-1.0,1,1,4,1.0,105,0.8342196180446991,0.0,-2.2897777777777777,0.44499999999999984,-2.2686250418854015
168,169,Respond Naturally,IcebergLettuce_4_8leaves.jpg,-1.0,2,2,6,3.0,105,0.9785133453033268,0.0,-1.2897777777777777,2.445,-0.2686250418854015
169,170,Respond Naturally,DriedApricots_5_0.75cup.jpg,-2.0,2,2,3,2.0,105,1.5915557005137089,0.0,-1.2897777777777777,-0.5550000000000002,-1.2686250418854015
170,171,Respond Naturally,AlmondMilk_4_1glass.jpg,-2.0,1,1,1,2.0,105,1.7798177404820308,0.0,-2.2897777777777777,-2.555,-1.2686250418854015
171,172,Respond Naturally,SlicedTurkey_5_4slices.jpg,-2.0,1,1,2,2.0,105,0.9390259687306752,0.0,-2.2897777777777777,-1.5550000000000002,-1.2686250418854015
172,173,Respond Naturally,RedPepper_2_2pc.jpg,2.0,5,4,6,5.0,105,1.2752290360785992,1.0,0.7102222222222223,2.445,1.7313749581145985
