,Trial,Instruction,Food,Choice,RT,Liking,Taste,Health,preLiking,subjIdx
0,1,Respond Naturally,DriedHerring_1_1fish.jpg,-2.0,1.190808211609692,1,1,6,1.0,104
1,2,Respond Naturally,Triscuit_5_30crackers.jpg,-1.0,1.5485761742893374,1,1,6,1.0,104
2,3,Respond Naturally,OatmealSquares_3_2tbsp.jpg,-2.0,1.3224977633763046,1,1,3,1.0,104
3,4,Respond Naturally,SevenGrain_3_5.jpg,-2.0,1.2401205181304251,1,1,6,3.0,104
4,5,Respond Naturally,IceCreamVanilla_1_2tsp.jpg,2.0,0.9082346454270008,5,6,1,5.0,104
5,6,Respond Naturally,Tuna_4_1can.jpg,-2.0,1.004629764258425,1,1,6,2.0,104
6,7,Respond Naturally,OatBran_4_1bowl.jpg,-2.0,0.8657533723235247,1,4,6,1.0,104
7,8,Respond Naturally,Orange_5_2orange.jpg,-2.0,1.4852753596387631,1,2,6,1.0,104
8,9,Respond Naturally,Reese_1_1Cup.jpg,-1.0,1.2834377090148337,1,1,1,1.0,104
9,10,Respond Naturally,FruitCrisps_1_0.5bar.jpg,-2.0,0.5866129991482012,1,1,1,1.0,104
10,11,Respond Naturally,RiceKrispiesCereal_7_2cups.jpg,-2.0,1.0334158987461706,1,2,1,2.0,104
11,12,Respond Naturally,Tuna_2_1T.jpg,-2.0,0.6465345049873576,1,1,6,1.0,104
12,13,Respond Naturally,Mentos_2_3pc.jpg,1.0,0.9356639815814559,6,5,1,3.0,104
13,14,Respond Naturally,AllBranCereal_6_1cup.jpg,-2.0,0.6695846811489901,1,2,6,1.0,104
14,15,Respond Naturally,EnglishCucumber_5_0.5cuc.JPG,1.0,0.8066261594358366,5,4,6,4.0,104
15,16,Decrease Desire,NatureValleyChocolate_1_0.25bar.jpg,1.0,1.095310592492751,4,5,1,4.0,104
16,17,Decrease Desire,SlimStyles_2_2Tbsp.jpg,1.0,0.9041978924142312,3,1,2,1.0,104
17,18,Decrease Desire,FrozenBlueberries_1_1tbsp.jpg,-2.0,1.1608819559769472,1,1,6,1.0,104
18,19,Decrease Desire,FrozenOkra_5_0.5box.jpg,-2.0,1.013904688268667,1,1,6,1.0,104
19,20,Decrease Desire,Mars_2_0.5Bar.jpg,-2.0,0.8842718591658922,1,1,1,3.0,104
20,21,Decrease Desire,Celery_4_0.5bunch.jpg,-2.0,0.760554317264905,1,1,6,1.0,104
21,22,Decrease Desire,ProMax_4_1bar.jpg,-2.0,0.7689209076961561,1,1,1,1.0,104
22,23,Decrease Desire,WaterChestnuts_5_0.5can.jpg,-2.0,1.6640420216863276,1,1,6,1.0,104
23,24,Decrease Desire,HoneyNutCheerios_5_2cup.jpg,-2.0,0.9535059224144788,1,1,3,1.0,104
24,25,Decrease Desire,Prunes_2_3.jpg,-2.0,0.7851015617306984,1,1,6,1.0,104
25,26,Decrease Desire,Pringles_5_40Chips.jpg,1.0,0.8709060128458077,4,5,1,3.0,104
26,27,Decrease Desire,VegetableThins_5_25Chips.jpg,-2.0,0.7265750578335428,1,1,6,1.0,104
27,28,Decrease Desire,SlimStyles_6_2c.jpg,1.0,0.7363280971585482,1,5,3,4.0,104
28,29,Decrease Desire,Broccoli_4_1.5c.jpg,1.0,0.7213140787134762,4,1,6,6.0,104
29,30,Decrease Desire,HoneyNutCheerios_2_2tbsp.jpg,-2.0,0.6006066391055356,1,1,1,1.0,104
30,31,Focus on Healthiness,SpeltCakes_2_0.5.jpg,-2.0,1.2177548708168615,1,2,1,1.0,104
31,32,Focus on Healthiness,SlicedTurkey_5_4slices.jpg,1.0,1.2884355393944134,5,6,1,5.0,104
32,33,Focus on Healthiness,Raspberries_4_.5c.jpg,-2.0,0.9668270077854686,1,2,6,1.0,104
33,34,Focus on Healthiness,CannedArtichoke_2_2.jpg,-2.0,0.8281179704645183,1,1,6,1.0,104
34,35,Focus on Healthiness,Avocado_5_1avacado.jpg,-1.0,1.4279519843366868,1,1,6,3.0,104
35,36,Focus on Healthiness,VanillaGreekYogurt_2_1spoon.jpg,1.0,1.0603038270346588,1,1,1,1.0,104
36,37,Focus on Healthiness,Raspberries_5_.5bag.jpg,-2.0,0.661814238086663,1,1,1,1.0,104
37,38,Focus on Healthiness,PopTartStrawberry_2_0.5tart.jpg,-2.0,1.4636204705202545,1,4,2,2.0,104
38,39,Focus on Healthiness,LuckyCharms_3_2tbsps.jpg,-2.0,1.4396488461097758,1,1,1,1.0,104
39,40,Focus on Healthiness,RedPepper_2_2pc.jpg,-2.0,1.2817561800038677,1,1,6,1.0,104
40,41,Focus on Healthiness,DriedApricots_5_0.75cup.jpg,-2.0,0.7564477143678232,1,2,3,1.0,104
41,42,Focus on Healthiness,AllBranBar_3_1bar.jpg,-2.0,1.1458705034492596,1,1,6,1.0,104
42,43,Focus on Healthiness,JuniorMints_2_9pc.jpg,-1.0,1.668751614386565,1,4,1,2.0,104
43,44,Focus on Healthiness,SkimMilk_1_1Tbsp.jpg,-2.0,0.8974424109110258,1,1,6,2.0,104
44,45,Focus on Healthiness,FrozenCorn_4_2cups.jpg,-2.0,0.7399257937649963,1,1,5,1.0,104
45,46,Decrease Desire,CornFlakes_3_2tbsps.jpg,-2.0,0.6100460667112202,1,2,1,1.0,104
46,47,Decrease Desire,Aero_1_1pc.jpg,2.0,0.6417262671493518,6,5,1,6.0,104
47,48,Decrease Desire,TofuDessert_4_1pck.jpg,-2.0,0.6962795956787886,1,1,5,,104
48,49,Decrease Desire,Celery_2_1stalk.jpg,-2.0,0.6027762619851273,5,1,6,1.0,104
49,50,Decrease Desire,YorkPeppermintPatties_4_12.jpg,-2.0,0.5708756780441036,4,6,1,5.0,104
50,51,Decrease Desire,Almonds_2_10.jpg,-2.0,1.0869032325390435,1,2,6,1.0,104
51,52,Decrease Desire,MangoChunks_2_3.jpg,2.0,1.6183459433741518,1,2,6,1.0,104
52,53,Decrease Desire,HersheysKisses_2_5.jpg,2.0,0.6131043511595635,6,5,1,6.0,104
53,54,Decrease Desire,FibreBrownies_3_2bars.jpg,-1.0,1.7330192084300506,1,5,4,2.0,104
54,55,Decrease Desire,AppleChips_5_1c..jpg,-2.0,0.9663640028484224,1,1,1,1.0,104
55,56,Decrease Desire,FrozenPeaches_2_3Slices.jpg,2.0,0.863326302729547,1,1,6,4.0,104
56,57,Decrease Desire,HersheysKisses_3_15.jpg,2.0,1.1500900065620954,6,5,1,4.0,104
57,58,Decrease Desire,FrozenOkra_2_2pc.jpg,-2.0,0.6123377130643348,1,1,6,1.0,104
58,59,Decrease Desire,CornFlakes_6_2cups.jpg,-2.0,0.5650350874493597,1,1,6,1.0,104
59,60,Decrease Desire,BabyFoodCarrots_5_1jar.jpg,-2.0,1.2583310952832107,1,1,1,1.0,104
60,61,Focus on Healthiness,FrozenPeas_2_2tbsp.jpg,-2.0,1.4103164570333317,1,1,1,1.0,104
61,62,Focus on Healthiness,PopTartStrawberry_5_3tarts.jpg,-2.0,0.8203823097901477,1,1,1,1.0,104
62,63,Focus on Healthiness,DriedApricots_2_2.jpg,-2.0,0.9391687350798748,1,1,1,1.0,104
63,64,Focus on Healthiness,Strawberries_2_0.5c.jpg,2.0,1.7489449816712297,1,1,6,2.0,104
64,65,Focus on Healthiness,CheeseNips_5_1c.jpg,-2.0,1.0484957756489166,1,1,1,1.0,104
65,66,Focus on Healthiness,SlicedTurkey_2_0.5slice.jpg,-1.0,1.2513033417890256,1,5,3,5.0,104
66,67,Focus on Healthiness,FrozenCorn_2_0.5cup.jpg,-2.0,0.8854989362880588,1,1,6,3.0,104
67,68,Focus on Healthiness,Asparagus_3_7.jpg,-2.0,1.412586150563584,1,1,6,1.0,104
68,69,Focus on Healthiness,Asparagus_6_FullPack.jpg,-2.0,2.5272209269096493,1,1,6,1.0,104
69,70,Focus on Healthiness,AlmondMilk_4_1glass.jpg,-2.0,0.9796103916087304,1,1,1,4.0,104
70,71,Focus on Healthiness,Avocado_2_2pc.jpg,-2.0,1.3433728997260914,1,1,6,3.0,104
71,72,Focus on Healthiness,LuckyCharms_6_1cup.jpg,-2.0,2.1282053255854407,1,2,1,1.0,104
72,73,Focus on Healthiness,CheeseNips_2_5nips.jpg,-2.0,1.2422841538827925,1,1,1,1.0,104
73,74,Focus on Healthiness,MnMPlain_3_1tbsp.jpg,-2.0,2.0509003222214237,1,4,1,1.0,104
74,75,Focus on Healthiness,Beets_5_1can.jpg,-2.0,1.8634759810520336,1,1,6,1.0,104
75,76,Respond Naturally,BBQCrisps_6_1cup.jpg,-2.0,1.2214720249794482,1,1,1,1.0,104
76,77,Respond Naturally,IcebergLettuce_4_8leaves.jpg,2.0,2.247981623495434,3,4,6,5.0,104
77,78,Respond Naturally,PureFit_4_2Bars.jpg,-1.0,1.2029267385914864,1,2,6,1.0,104
78,79,Respond Naturally,RiceKrispiesCereal_3_2tbsp.jpg,-2.0,1.026092209827766,1,1,1,1.0,104
79,80,Respond Naturally,OatBran_2_2T.jpg,-2.0,1.2296447463486402,4,1,6,1.0,104
80,81,Respond Naturally,Reese_4_5Cup.jpg,2.0,1.4751066422395525,1,1,1,1.0,104
81,82,Respond Naturally,Orange_1_0.25orange.jpg,-2.0,0.6539924767384946,1,1,6,2.0,104
82,83,Respond Naturally,MnMPeanuts_4_45.jpg,-2.0,2.8630067038757256,1,1,1,3.0,104
83,84,Respond Naturally,BrusselsSprouts_4_1Box.jpg,2.0,1.8607381507499667,4,1,5,5.0,104
84,85,Respond Naturally,SevenGrain_1_1.jpg,-2.0,0.6826411922702391,1,1,5,1.0,104
85,86,Respond Naturally,Smartfood_4_100Chips.jpg,-1.0,1.940449696394353,1,4,6,5.0,104
86,87,Respond Naturally,Butternut_7_2cups.jpg,-2.0,2.6156639929831726,1,2,6,1.0,104
87,88,Respond Naturally,FruitCrisps_3_2bars.jpg,-2.0,1.002619798251544,1,1,1,1.0,104
88,89,Respond Naturally,KashiBars_4_3bars.jpg,-2.0,0.9662730554482549,1,1,6,1.0,104
89,90,Respond Naturally,Cheerios_5_2c.jpg,-2.0,0.79846170601013,1,1,5,1.0,104
90,91,Decrease Desire,FrozenBlueberries_3_1cup.jpg,-2.0,1.5747405148140388,1,1,5,1.0,104
91,92,Decrease Desire,Almonds_4_40.jpg,-1.0,1.0747607570265243,1,5,6,1.0,104
92,93,Decrease Desire,RitzCrackers_5_15Crackers.jpg,-2.0,2.258465378123219,1,1,1,2.0,104
93,94,Decrease Desire,FrozenPeaches_5_1.5Cups.jpg,-2.0,1.4774253732430225,1,1,1,5.0,104
94,95,Decrease Desire,RitzCrackers_2_3Crackers.jpg,-2.0,1.123791953406908,1,1,1,1.0,104
95,96,Decrease Desire,Mars_4_2Bars.jpg,-2.0,0.7052121127126156,1,1,1,1.0,104
96,97,Decrease Desire,Pringles_2_3Chips.jpg,-1.0,1.2347606087714669,5,6,1,3.0,104
97,98,Decrease Desire,Prunes_5_1c.jpg,-2.0,3.2240299561926804,1,1,1,1.0,104
98,99,Decrease Desire,FibreBrownies_2_1bar.jpg,-2.0,1.3655569373477192,1,1,3,2.0,104
99,100,Decrease Desire,FrozenBroccoli_6_0.5bag.jpg,-1.0,1.997959813223133,4,1,6,6.0,104
100,101,Decrease Desire,Bananas_3_1.jpg,-2.0,1.0325126969946723,1,1,5,1.0,104
101,102,Decrease Desire,Mackerel_1_1fish.jpg,-2.0,2.4383425107516814,1,1,1,1.0,104
102,103,Decrease Desire,RaisinBran_7_2cup.jpg,1.0,1.302721123345691,4,5,2,4.0,104
103,104,Decrease Desire,RaisinBran_3_2tbsp.jpg,1.0,0.8476628229254857,1,6,2,6.0,104
104,105,Decrease Desire,ClamJuice_1_1T.jpg,-2.0,1.2233194830987486,1,4,1,1.0,104
105,106,Respond Naturally,Triscuit_2_2crackers.jpg,-2.0,0.7937019354394579,1,1,1,1.0,104
106,107,Respond Naturally,ClifBar_4_2bars.jpg,-2.0,0.7215011053376656,1,2,6,1.0,104
107,108,Respond Naturally,HoneyNutCheerios_2_2tbsp.jpg,-2.0,0.8339226382595369,1,1,1,1.0,104
108,109,Respond Naturally,Tempeh_4_.5pack.jpg,-2.0,0.7000514893443324,1,1,1,1.0,104
109,110,Respond Naturally,Doritos_5_20chips.jpg,1.0,1.5065453616552986,4,5,1,4.0,104
110,111,Respond Naturally,KashiBars_1_0.5bar.jpg,-2.0,0.9245706798137691,1,1,5,1.0,104
111,112,Respond Naturally,Doritos_2_3chips.jpg,1.0,0.7856543736561434,1,4,1,2.0,104
112,113,Respond Naturally,ClifBar_2_0.5bar.jpg,-2.0,0.9045514183526392,1,2,6,1.0,104
113,114,Respond Naturally,ChipsAhoy_2_.5cookie.jpg,2.0,1.7540437380012008,6,5,1,6.0,104
114,115,Respond Naturally,PureFit_2_0.5Bars.jpg,-2.0,1.6627351161296249,1,1,1,1.0,104
115,116,Respond Naturally,BrusselsSprouts_2_3.jpg,1.0,0.9452325601960184,1,5,6,5.0,104
116,117,Respond Naturally,EnglishCucumber_2_2pc.jpg,1.0,1.033721242518368,6,4,6,4.0,104
117,118,Respond Naturally,OatmealSquares_7_2Cups.jpg,-2.0,0.7485791963663359,1,2,6,1.0,104
118,119,Respond Naturally,AllBranCereal_2_1tbsp.jpg,-2.0,0.7756550065823831,1,1,1,1.0,104
119,120,Respond Naturally,GreenApple_4_1.jpg,-2.0,1.1082020298090356,1,1,6,1.0,104
120,121,Focus on Healthiness,Cauliflower_6_0.5bag.jpg,1.0,1.7297687655263871,1,1,6,4.0,104
121,122,Focus on Healthiness,MnMPlain_5_1bag.jpg,-2.0,0.6791686552496685,1,5,1,1.0,104
122,123,Focus on Healthiness,LaysClassic_3_8Chips.jpg,-1.0,1.8512354305967165,5,1,1,5.0,104
123,124,Focus on Healthiness,Shreddies_5_2c.jpg,-2.0,0.6990490722528193,1,1,1,2.0,104
124,125,Focus on Healthiness,Strawberries_3_0.5bag.jpg,-2.0,0.951834657058498,1,2,1,1.0,104
125,126,Focus on Healthiness,GreenBeans_4_.5pck.jpg,-2.0,0.6815549553211895,1,1,6,1.0,104
126,127,Focus on Healthiness,GreenBeans_2_9beans.jpg,-2.0,1.2299269968971205,1,1,6,1.0,104
127,128,Focus on Healthiness,Shreddies_2_1T.jpg,-2.0,1.6552517703385092,1,1,1,1.0,104
128,129,Focus on Healthiness,Fritos_2_5chips.jpg,-2.0,2.488567712476652,6,1,1,1.0,104
129,130,Focus on Healthiness,OikosYogurt_3_2spoonfuls.jpg,-1.0,0.7764504399383441,1,1,6,1.0,104
130,131,Focus on Healthiness,JuniorMints_4_1box.jpg,-1.0,0.9560410455014791,5,1,1,2.0,104
131,132,Focus on Healthiness,AlmondMilk_2_0.25glass.jpg,-1.0,1.0384881406316708,1,1,6,5.0,104
132,133,Focus on Healthiness,Beets_2_5pc.jpg,-2.0,0.7988622737102559,1,1,1,1.0,104
133,134,Focus on Healthiness,IceCreamChocolate_1_1tsp.jpg,2.0,1.093739682884916,6,5,6,5.0,104
134,135,Focus on Healthiness,Fritos_5_1c.jpg,,,5,1,1,1.0,104
135,136,Decrease Desire,Aero_3_1bar.jpg,2.0,0.9221265041232982,6,5,1,6.0,104
136,137,Decrease Desire,MangoChunks_5_1cup.jpg,-2.0,1.8859684985582132,1,2,6,2.0,104
137,138,Decrease Desire,Bananas_2_0.5.jpg,-2.0,0.8695834267055034,1,1,6,3.0,104
138,139,Decrease Desire,WaterChestnuts_3_8pc.jpg,-2.0,1.4355262775279698,1,1,6,1.0,104
139,140,Decrease Desire,VegetableThins_2_5Chips.jpg,-2.0,0.91591642190906,1,2,6,1.0,104
140,141,Decrease Desire,YorkPeppermintPatties_2_3.jpg,1.0,1.1127787651857943,1,4,5,4.0,104
141,142,Decrease Desire,Snickers_3_2Bars.jpg,-2.0,0.9532208208547672,1,1,1,1.0,104
142,143,Decrease Desire,Caramilk_5_2bars.jpg,1.0,0.7431711048484431,6,6,1,1.0,104
143,144,Decrease Desire,NatureValleyChocolate_4_2bars.jpg,1.0,1.4426814714170175,5,4,1,4.0,104
144,145,Decrease Desire,AppleChips_2_3chips.jpg,-2.0,0.6608768241494545,1,1,1,1.0,104
145,146,Decrease Desire,Caramilk_2_2pc.jpg,1.0,0.7638555082448875,5,5,1,4.0,104
146,147,Decrease Desire,Snickers_2_1Bar.jpg,-2.0,0.9784657088384848,1,1,1,1.0,104
147,148,Decrease Desire,ProMax_2_0.25bar.jpg,-2.0,1.1414611226937268,1,1,6,1.0,104
148,149,Decrease Desire,Mackerel_3_4fish.jpg,-2.0,0.6751262002071599,1,1,6,1.0,104
149,150,Decrease Desire,BabyFoodCarrots_3_2Tbsp.jpg,-2.0,0.6363483963868929,1,1,6,1.0,104
150,151,Respond Naturally,IceCreamVanilla_4_3scoops.jpg,1.0,1.8481346660119016,6,6,1,5.0,104
151,152,Respond Naturally,BabyFoodSweetPotatos_5_1jar.jpg,-2.0,0.6628542885882779,1,2,1,1.0,104
152,153,Respond Naturally,GreenPepper_2_2pc.jpg,-2.0,1.4976062872883629,1,1,6,3.0,104
153,154,Respond Naturally,DriedHerring_3_4fish.jpg,-2.0,0.5942129514805856,1,1,1,1.0,104
154,155,Respond Naturally,MnMPeanuts_2_4.jpg,-2.0,0.8007160040651797,1,5,1,1.0,104
155,156,Respond Naturally,Smartfood_2_8Chips.jpg,-1.0,1.0682159655771102,6,4,5,6.0,104
156,157,Respond Naturally,GreenPepper_6_1pepper.jpg,-2.0,0.5603471624635858,1,1,6,1.0,104
157,158,Respond Naturally,GreenApple_2_1slice.jpg,-2.0,0.9088496094991568,1,1,6,2.0,104
158,159,Respond Naturally,Tempeh_2_1Tbsp.jpg,-2.0,0.7618144661682891,1,1,1,1.0,104
159,160,Respond Naturally,Butternut_3_0.3cup.jpg,-2.0,0.5761477761188871,1,2,6,1.0,104
160,161,Respond Naturally,ChipsAhoy_4_2cookies.jpg,2.0,1.9813860041322189,6,1,1,6.0,104
161,162,Respond Naturally,HoneyNutCheerios_5_2cup.jpg,-2.0,0.5566020683545503,1,1,3,1.0,104
162,163,Respond Naturally,SunChips_4_20Chips.jpg,1.0,1.9148683885650823,6,4,1,4.0,104
163,164,Respond Naturally,SunChips_2_3Chips.jpg,1.0,0.6103682314715115,1,2,1,4.0,104
164,165,Respond Naturally,Mentos_5_1tube.jpg,1.0,0.8747092676858301,6,5,6,4.0,104
165,166,Focus on Healthiness,IceCreamChocolate_4_3scoops.jpg,1.0,1.6392458835543948,6,6,1,5.0,104
166,167,Focus on Healthiness,AllBranBar_1_.25bar.jpg,-2.0,0.8801299036713317,1,1,6,1.0,104
167,168,Focus on Healthiness,CannedArtichoke_5_1can.jpg,-2.0,1.8253020223419296,1,1,4,1.0,104
168,169,Focus on Healthiness,LaysClassic_4_16Chips.jpg,-1.0,0.9569354090999695,1,5,1,4.0,104
169,170,Focus on Healthiness,VanillaGreekYogurt_4_1cup.jpg,-1.0,1.0180936855103937,1,1,6,1.0,104
170,171,Focus on Healthiness,Spinach_2_.5c.jpg,-2.0,1.0686561623879245,1,1,6,6.0,104
171,172,Focus on Healthiness,SkimMilk_4_1glass.jpg,-2.0,1.151245808294334,1,1,5,2.0,104
172,173,Focus on Healthiness,Cauliflower_2_3chunks.jpg,1.0,1.625663930259179,1,1,6,4.0,104
173,174,Focus on Healthiness,FrozenPeas_6_0.5bag.jpg,-2.0,2.0089014409604715,1,1,6,2.0,104
174,175,Focus on Healthiness,SkittlesSour_6_0.5pack.jpg,1.0,0.7094874957329012,6,6,1,6.0,104
175,176,Focus on Healthiness,OikosYogurt_6_1c.jpg,-2.0,0.7329251249175286,1,1,1,1.0,104
176,177,Focus on Healthiness,SpeltCakes_5_4.jpg,-2.0,2.677144719265925,1,1,4,1.0,104
177,178,Focus on Healthiness,Spinach_4_.5box.jpg,-2.0,1.5235499592017732,1,1,6,1.0,104
178,179,Focus on Healthiness,Skittles_6_0.75pack.jpg,2.0,1.3091447466285902,6,6,1,6.0,104
179,180,Focus on Healthiness,RedPepper_5_1pepper.jpg,-2.0,0.5302455693818047,1,1,6,1.0,104
180,181,Focus on Healthiness,SlicedTurkey_2_0.5slice.jpg,-1.0,2.1214928944100397,1,5,3,5.0,104
181,182,Focus on Healthiness,CannedArtichoke_5_1can.jpg,-2.0,1.3546714746189537,1,1,4,1.0,104
182,183,Focus on Healthiness,FrozenPeas_2_2tbsp.jpg,-2.0,1.7641751070987084,1,1,1,1.0,104
183,184,Focus on Healthiness,CheeseNips_2_5nips.jpg,-2.0,0.804116410385177,1,1,1,1.0,104
184,185,Focus on Healthiness,OikosYogurt_3_2spoonfuls.jpg,-2.0,1.1945635693773509,1,1,6,1.0,104
185,186,Focus on Healthiness,SkittlesSour_6_0.5pack.jpg,1.0,0.6005447720599477,6,6,1,6.0,104
186,187,Focus on Healthiness,GreenBeans_4_.5pck.jpg,-2.0,0.638898344754125,1,1,6,1.0,104
187,188,Focus on Healthiness,Beets_2_5pc.jpg,-2.0,0.7960657124858699,1,1,1,1.0,104
188,189,Focus on Healthiness,JuniorMints_4_1box.jpg,1.0,0.7545315467723412,5,1,1,2.0,104
189,190,Focus on Healthiness,FrozenCorn_4_2cups.jpg,-2.0,0.9888761923648416,1,1,5,1.0,104
190,191,Focus on Healthiness,CheeseNips_5_1c.jpg,-2.0,0.8511943759731366,1,1,1,1.0,104
191,192,Focus on Healthiness,JuniorMints_2_9pc.jpg,1.0,1.0709546511716326,1,4,1,2.0,104
192,193,Focus on Healthiness,GreenBeans_2_9beans.jpg,-2.0,1.098356617578247,1,1,6,1.0,104
193,194,Focus on Healthiness,SpeltCakes_2_0.5.jpg,-2.0,0.6466836131075979,1,2,1,1.0,104
194,195,Focus on Healthiness,Spinach_2_.5c.jpg,-2.0,0.6749876408430282,1,1,6,6.0,104
195,196,Decrease Desire,CornFlakes_6_2cups.jpg,-2.0,1.1294871421996504,1,1,6,1.0,104
196,197,Decrease Desire,Broccoli_4_1.5c.jpg,1.0,0.7601380689884536,4,1,6,6.0,104
197,198,Decrease Desire,MangoChunks_2_3.jpg,-2.0,1.6236756319704,1,2,6,1.0,104
198,199,Decrease Desire,ProMax_2_0.25bar.jpg,-2.0,3.822365476247796,1,1,6,1.0,104
199,200,Decrease Desire,MangoChunks_5_1cup.jpg,-2.0,1.2062689841986869,1,2,6,2.0,104
200,201,Decrease Desire,YorkPeppermintPatties_2_3.jpg,1.0,1.3025315308041172,1,4,5,4.0,104
201,202,Decrease Desire,Almonds_2_10.jpg,-2.0,2.015379803742689,1,2,6,1.0,104
202,203,Decrease Desire,FrozenPeaches_2_3Slices.jpg,-2.0,2.0945202909642835,1,1,6,4.0,104
203,204,Decrease Desire,Mars_4_2Bars.jpg,-2.0,2.089446623576805,1,1,1,1.0,104
204,205,Decrease Desire,BabyFoodCarrots_5_1jar.jpg,-2.0,1.3523709901128314,1,1,1,1.0,104
205,206,Decrease Desire,WaterChestnuts_5_0.5can.jpg,-2.0,0.640762053670187,1,1,6,1.0,104
206,207,Decrease Desire,FrozenOkra_5_0.5box.jpg,-2.0,0.6630675445485394,1,1,6,1.0,104
207,208,Decrease Desire,VegetableThins_2_5Chips.jpg,,,1,2,6,1.0,104
208,209,Decrease Desire,RaisinBran_3_2tbsp.jpg,1.0,0.9406367230258184,1,6,2,6.0,104
209,210,Decrease Desire,Bananas_3_1.jpg,-2.0,1.0018637089087858,1,1,5,1.0,104
210,211,Respond Naturally,FruitCrisps_1_0.5bar.jpg,-2.0,0.914064117059752,1,1,1,1.0,104
211,212,Respond Naturally,PureFit_2_0.5Bars.jpg,-2.0,0.7270796875964152,1,1,1,1.0,104
212,213,Respond Naturally,Smartfood_2_8Chips.jpg,-1.0,0.9895781124141648,6,4,5,6.0,104
213,214,Respond Naturally,Reese_1_1Cup.jpg,-1.0,1.1204514184137224,1,1,1,1.0,104
214,215,Respond Naturally,Mentos_5_1tube.jpg,1.0,2.662447163558681,6,5,6,4.0,104
215,216,Respond Naturally,Smartfood_4_100Chips.jpg,-1.0,1.3559629846931784,1,4,6,5.0,104
216,217,Respond Naturally,Mentos_2_3pc.jpg,1.0,0.5669110557282693,6,5,1,3.0,104
217,218,Respond Naturally,Cheerios_5_2c.jpg,-2.0,0.9547022085680509,1,1,5,1.0,104
218,219,Respond Naturally,Tuna_4_1can.jpg,-2.0,1.7782619752615574,1,1,6,2.0,104
219,220,Respond Naturally,EnglishCucumber_5_0.5cuc.JPG,1.0,0.5385933431025478,5,4,6,4.0,104
220,221,Respond Naturally,OatBran_4_1bowl.jpg,-2.0,0.5996837653437979,1,4,6,1.0,104
221,222,Respond Naturally,Reese_4_5Cup.jpg,-2.0,0.5419085040630307,1,1,1,1.0,104
222,223,Respond Naturally,MnMPeanuts_2_4.jpg,1.0,1.9391835603601064,1,5,1,1.0,104
223,224,Respond Naturally,SevenGrain_3_5.jpg,-2.0,0.6965601356132538,1,1,6,3.0,104
224,225,Respond Naturally,OatmealSquares_3_2tbsp.jpg,-2.0,1.1629420998651767,1,1,3,1.0,104
225,226,Focus on Healthiness,Raspberries_4_.5c.jpg,-2.0,0.7216405200015288,1,2,6,1.0,104
226,227,Focus on Healthiness,Skittles_6_0.75pack.jpg,2.0,0.6754110166657483,6,6,1,6.0,104
227,228,Focus on Healthiness,Fritos_5_1c.jpg,2.0,1.083631977220648,5,1,1,1.0,104
228,229,Focus on Healthiness,MnMPlain_5_1bag.jpg,-2.0,1.4920165860676209,1,5,1,1.0,104
229,230,Focus on Healthiness,OikosYogurt_6_1c.jpg,-2.0,0.5622673214893439,1,1,1,1.0,104
230,231,Focus on Healthiness,Strawberries_2_0.5c.jpg,-2.0,3.000652027272736,1,1,6,2.0,104
231,232,Focus on Healthiness,VanillaGreekYogurt_2_1spoon.jpg,-2.0,1.7107690272532636,1,1,1,1.0,104
232,233,Focus on Healthiness,Avocado_2_2pc.jpg,-2.0,0.9693071062720264,1,1,6,3.0,104
233,234,Focus on Healthiness,DriedApricots_5_0.75cup.jpg,-2.0,0.7203170785578551,1,2,3,1.0,104
234,235,Focus on Healthiness,Raspberries_5_.5bag.jpg,-2.0,1.232006242578791,1,1,1,1.0,104
235,236,Focus on Healthiness,AlmondMilk_2_0.25glass.jpg,-2.0,2.540299105749,1,1,6,5.0,104
236,237,Focus on Healthiness,Spinach_4_.5box.jpg,-2.0,1.164661262278969,1,1,6,1.0,104
237,238,Focus on Healthiness,DriedApricots_2_2.jpg,-2.0,0.5792702084218035,1,1,1,1.0,104
238,239,Focus on Healthiness,Cauliflower_6_0.5bag.jpg,-2.0,0.6276545093642198,1,1,6,4.0,104
239,240,Focus on Healthiness,SpeltCakes_5_4.jpg,-2.0,1.9069362929149063,1,1,4,1.0,104
240,241,Respond Naturally,Orange_1_0.25orange.jpg,-2.0,0.6326968155844952,1,1,6,2.0,104
241,242,Respond Naturally,BrusselsSprouts_2_3.jpg,1.0,0.9388197707667132,1,5,6,5.0,104
242,243,Respond Naturally,Butternut_3_0.3cup.jpg,-2.0,0.8949979501194321,1,2,6,1.0,104
243,244,Respond Naturally,PureFit_4_2Bars.jpg,-2.0,0.7361710061959457,1,2,6,1.0,104
244,245,Respond Naturally,SunChips_4_20Chips.jpg,-2.0,0.7905358825955773,6,4,1,4.0,104
245,246,Respond Naturally,GreenApple_2_1slice.jpg,-2.0,0.6505775302357506,1,1,6,2.0,104
246,247,Respond Naturally,HoneyNutCheerios_2_2tbsp.jpg,-2.0,1.486249551679066,1,1,1,1.0,104
247,248,Respond Naturally,KashiBars_4_3bars.jpg,-2.0,0.6385308488388546,1,1,6,1.0,104
248,249,Respond Naturally,MnMPeanuts_4_45.jpg,-2.0,0.7452027385734254,1,1,1,3.0,104
249,250,Respond Naturally,Tempeh_4_.5pack.jpg,-2.0,0.8542443924816325,1,1,1,1.0,104
250,251,Respond Naturally,HoneyNutCheerios_5_2cup.jpg,-2.0,0.8871311427210458,1,1,3,1.0,104
251,252,Respond Naturally,EnglishCucumber_2_2pc.jpg,1.0,1.2727945826190992,6,4,6,4.0,104
252,253,Respond Naturally,OatmealSquares_7_2Cups.jpg,-2.0,0.7136602421887801,1,2,6,1.0,104
253,254,Respond Naturally,RiceKrispiesCereal_7_2cups.jpg,-2.0,0.6251524580584373,1,2,1,2.0,104
254,255,Respond Naturally,Tuna_2_1T.jpg,-2.0,0.6194136487247306,1,1,6,1.0,104
255,256,Decrease Desire,RitzCrackers_2_3Crackers.jpg,-2.0,1.5147873627065565,1,1,1,1.0,104
256,257,Decrease Desire,FrozenBlueberries_1_1tbsp.jpg,-2.0,0.7253841886122245,1,1,6,1.0,104
257,258,Decrease Desire,Aero_1_1pc.jpg,-1.0,1.9727574053686112,6,5,1,6.0,104
258,259,Decrease Desire,SlimStyles_2_2Tbsp.jpg,-1.0,1.5185666690013022,3,1,2,1.0,104
259,260,Decrease Desire,Aero_3_1bar.jpg,2.0,1.0872464948188278,6,5,1,6.0,104
260,261,Decrease Desire,HoneyNutCheerios_2_2tbsp.jpg,-2.0,1.4934458001953317,1,1,1,1.0,104
261,262,Decrease Desire,Pringles_2_3Chips.jpg,1.0,0.8416919409210095,5,6,1,3.0,104
262,263,Decrease Desire,Prunes_2_3.jpg,-2.0,0.5897274486051174,1,1,6,1.0,104
263,264,Decrease Desire,AppleChips_5_1c..jpg,-2.0,0.6673104259898537,1,1,1,1.0,104
264,265,Decrease Desire,FrozenPeaches_5_1.5Cups.jpg,-2.0,0.7534963430007338,1,1,1,5.0,104
265,266,Decrease Desire,Caramilk_5_2bars.jpg,2.0,1.2953318610743736,6,6,1,1.0,104
266,267,Decrease Desire,Mackerel_1_1fish.jpg,-2.0,1.4553893033298664,1,1,1,1.0,104
267,268,Decrease Desire,BabyFoodCarrots_3_2Tbsp.jpg,-2.0,0.6669720104328007,1,1,6,1.0,104
268,269,Decrease Desire,HersheysKisses_3_15.jpg,-1.0,1.6442451394468662,6,5,1,4.0,104
269,270,Decrease Desire,NatureValleyChocolate_1_0.25bar.jpg,,,4,5,1,4.0,104
270,271,Decrease Desire,HersheysKisses_2_5.jpg,-1.0,2.4428975784030627,6,5,1,6.0,104
271,272,Decrease Desire,Snickers_2_1Bar.jpg,-2.0,0.7955807547332371,1,1,1,1.0,104
272,273,Decrease Desire,RaisinBran_7_2cup.jpg,,,4,5,2,4.0,104
273,274,Decrease Desire,AppleChips_2_3chips.jpg,-2.0,3.3729969476989936,1,1,1,1.0,104
274,275,Decrease Desire,NatureValleyChocolate_4_2bars.jpg,,,5,4,1,4.0,104
275,276,Decrease Desire,Almonds_4_40.jpg,-2.0,0.5131856621301267,1,5,6,1.0,104
276,277,Decrease Desire,Celery_2_1stalk.jpg,-2.0,0.5261432430052082,5,1,6,1.0,104
277,278,Decrease Desire,HoneyNutCheerios_5_2cup.jpg,-2.0,0.6706033490336267,1,1,3,1.0,104
278,279,Decrease Desire,FrozenBroccoli_6_0.5bag.jpg,-2.0,0.8019345281354617,4,1,6,6.0,104
279,280,Decrease Desire,SlimStyles_6_2c.jpg,,,1,5,3,4.0,104
280,281,Decrease Desire,ProMax_4_1bar.jpg,-2.0,1.0047229924675776,1,1,1,1.0,104
281,282,Decrease Desire,Mars_2_0.5Bar.jpg,-1.0,1.157699652350857,1,1,1,3.0,104
282,283,Decrease Desire,WaterChestnuts_3_8pc.jpg,-2.0,0.5977935419941787,1,1,6,1.0,104
283,284,Decrease Desire,FibreBrownies_3_2bars.jpg,1.0,1.7386830360628664,1,5,4,2.0,104
284,285,Decrease Desire,FibreBrownies_2_1bar.jpg,1.0,3.1041832381961285,1,1,3,2.0,104
285,286,Focus on Healthiness,Strawberries_3_0.5bag.jpg,-2.0,0.4760323670125217,1,2,1,1.0,104
286,287,Focus on Healthiness,SlicedTurkey_5_4slices.jpg,1.0,1.6100281053149956,5,6,1,5.0,104
287,288,Focus on Healthiness,Cauliflower_2_3chunks.jpg,1.0,3.4155110074862023,1,1,6,4.0,104
288,289,Focus on Healthiness,LuckyCharms_3_2tbsps.jpg,,,1,1,1,1.0,104
289,290,Focus on Healthiness,IceCreamChocolate_1_1tsp.jpg,-1.0,2.868124562017329,6,5,6,5.0,104
290,291,Focus on Healthiness,IceCreamChocolate_4_3scoops.jpg,-1.0,2.003703184185724,6,6,1,5.0,104
291,292,Focus on Healthiness,LaysClassic_3_8Chips.jpg,-1.0,1.597718845383497,5,1,1,5.0,104
292,293,Focus on Healthiness,SkimMilk_4_1glass.jpg,-2.0,0.9339225812364019,1,1,5,2.0,104
293,294,Focus on Healthiness,Fritos_2_5chips.jpg,1.0,0.4904830247687642,6,1,1,1.0,104
294,295,Focus on Healthiness,AllBranBar_3_1bar.jpg,-2.0,0.5527232616077526,1,1,6,1.0,104
295,296,Focus on Healthiness,LaysClassic_4_16Chips.jpg,-2.0,0.6032304287728039,1,5,1,4.0,104
296,297,Focus on Healthiness,LuckyCharms_6_1cup.jpg,-1.0,0.7934852582548046,1,2,1,1.0,104
297,298,Focus on Healthiness,Shreddies_2_1T.jpg,-1.0,1.3954327300016305,1,1,1,1.0,104
298,299,Focus on Healthiness,Beets_5_1can.jpg,-2.0,0.7010884037226788,1,1,6,1.0,104
299,300,Focus on Healthiness,VanillaGreekYogurt_4_1cup.jpg,-2.0,0.7277878798777238,1,1,6,1.0,104
300,301,Respond Naturally,BBQCrisps_6_1cup.jpg,-2.0,1.9525046457274584,1,1,1,1.0,104
301,302,Respond Naturally,DriedHerring_3_4fish.jpg,-2.0,0.5564349988417234,1,1,1,1.0,104
302,303,Respond Naturally,IceCreamVanilla_4_3scoops.jpg,1.0,0.9481961909332312,6,6,1,5.0,104
303,304,Respond Naturally,BrusselsSprouts_4_1Box.jpg,1.0,0.6432278970751213,4,1,5,5.0,104
304,305,Respond Naturally,Butternut_7_2cups.jpg,-2.0,0.667615769765689,1,2,6,1.0,104
305,306,Respond Naturally,ChipsAhoy_4_2cookies.jpg,2.0,2.1311313229161897,6,1,1,6.0,104
306,307,Respond Naturally,SunChips_2_3Chips.jpg,1.0,1.2081703265139367,1,2,1,4.0,104
307,308,Respond Naturally,ClifBar_2_0.5bar.jpg,-2.0,0.7325182849890552,1,2,6,1.0,104
308,309,Respond Naturally,Triscuit_2_2crackers.jpg,-2.0,1.263775679813989,1,1,1,1.0,104
309,310,Respond Naturally,Tempeh_2_1Tbsp.jpg,-2.0,0.5614647605907521,1,1,1,1.0,104
310,311,Respond Naturally,AllBranCereal_2_1tbsp.jpg,-2.0,1.2200308365863748,1,1,1,1.0,104
311,312,Respond Naturally,IceCreamVanilla_1_2tsp.jpg,1.0,0.9146710982895456,5,6,1,5.0,104
312,313,Respond Naturally,DriedHerring_1_1fish.jpg,-2.0,0.896696015028283,1,1,6,1.0,104
313,314,Respond Naturally,OatBran_2_2T.jpg,-2.0,0.5108455485096783,4,1,6,1.0,104
314,315,Respond Naturally,GreenPepper_2_2pc.jpg,-2.0,0.8272931716492167,1,1,6,3.0,104
315,316,Focus on Healthiness,PopTartStrawberry_5_3tarts.jpg,-2.0,0.7306608483122545,1,1,1,1.0,104
316,317,Focus on Healthiness,Avocado_5_1avacado.jpg,-1.0,1.0469981371425092,1,1,6,3.0,104
317,318,Focus on Healthiness,Asparagus_3_7.jpg,-2.0,2.5190530522741033,1,1,6,1.0,104
318,319,Focus on Healthiness,Shreddies_5_2c.jpg,-2.0,0.7302964885166148,1,1,1,2.0,104
319,320,Focus on Healthiness,PopTartStrawberry_2_0.5tart.jpg,-2.0,0.95815507358202,1,4,2,2.0,104
320,321,Focus on Healthiness,AllBranBar_1_.25bar.jpg,-1.0,0.479147101570561,1,1,6,1.0,104
321,322,Focus on Healthiness,CannedArtichoke_2_2.jpg,-2.0,3.039384499941661,1,1,6,1.0,104
322,323,Focus on Healthiness,AlmondMilk_4_1glass.jpg,-2.0,0.5980561205287813,1,1,1,4.0,104
323,324,Focus on Healthiness,RedPepper_2_2pc.jpg,-1.0,0.6030154621985275,1,1,6,1.0,104
324,325,Focus on Healthiness,MnMPlain_3_1tbsp.jpg,-2.0,0.8299061274592532,1,4,1,1.0,104
325,326,Focus on Healthiness,SkimMilk_1_1Tbsp.jpg,,,1,1,6,2.0,104
326,327,Focus on Healthiness,Asparagus_6_FullPack.jpg,-2.0,0.5666729959266377,1,1,6,1.0,104
327,328,Focus on Healthiness,FrozenPeas_6_0.5bag.jpg,-2.0,0.5253409672077396,1,1,6,2.0,104
328,329,Focus on Healthiness,RedPepper_5_1pepper.jpg,-1.0,0.7267809011609643,1,1,6,1.0,104
329,330,Focus on Healthiness,FrozenCorn_2_0.5cup.jpg,-2.0,2.490718518660288,1,1,6,3.0,104
330,331,Decrease Desire,Prunes_5_1c.jpg,-2.0,0.7377259501154185,1,1,1,1.0,104
331,332,Decrease Desire,RitzCrackers_5_15Crackers.jpg,-1.0,1.0851070927019464,1,1,1,2.0,104
332,333,Decrease Desire,Celery_4_0.5bunch.jpg,-2.0,0.8255837026808877,1,1,6,1.0,104
333,334,Decrease Desire,FrozenOkra_2_2pc.jpg,-2.0,2.2323686066665687,1,1,6,1.0,104
334,335,Decrease Desire,CornFlakes_3_2tbsps.jpg,-2.0,3.5893226043917816,1,2,1,1.0,104
335,336,Decrease Desire,VegetableThins_5_25Chips.jpg,-2.0,2.862772920590942,1,1,6,1.0,104
336,337,Decrease Desire,Caramilk_2_2pc.jpg,1.0,1.3746023545973003,5,5,1,4.0,104
337,338,Decrease Desire,ClamJuice_1_1T.jpg,-2.0,0.8254300329354008,1,4,1,1.0,104
338,339,Decrease Desire,FrozenBlueberries_3_1cup.jpg,-2.0,1.2935074961787905,1,1,5,1.0,104
339,340,Decrease Desire,Mackerel_3_4fish.jpg,-2.0,0.5851877764434903,1,1,6,1.0,104
340,341,Decrease Desire,Snickers_3_2Bars.jpg,-2.0,0.8257208365394035,1,1,1,1.0,104
341,342,Decrease Desire,TofuDessert_4_1pck.jpg,-2.0,1.2785333919528057,1,1,5,,104
342,343,Decrease Desire,Pringles_5_40Chips.jpg,-2.0,0.946200479993422,4,5,1,3.0,104
343,344,Decrease Desire,YorkPeppermintPatties_4_12.jpg,1.0,0.8063561682574799,4,6,1,5.0,104
344,345,Decrease Desire,Bananas_2_0.5.jpg,-2.0,2.0240879458433483,1,1,6,3.0,104
345,346,Respond Naturally,Doritos_5_20chips.jpg,2.0,1.2902017435626476,4,5,1,4.0,104
346,347,Respond Naturally,RiceKrispiesCereal_3_2tbsp.jpg,-2.0,0.6077193528690259,1,1,1,1.0,104
347,348,Respond Naturally,IcebergLettuce_4_8leaves.jpg,1.0,1.0461784701547003,3,4,6,5.0,104
348,349,Respond Naturally,BabyFoodSweetPotatos_5_1jar.jpg,-2.0,2.6038602181288297,1,2,1,1.0,104
349,350,Respond Naturally,GreenPepper_6_1pepper.jpg,-2.0,0.7307443830723059,1,1,6,1.0,104
350,351,Respond Naturally,FruitCrisps_3_2bars.jpg,-2.0,0.6984834307513665,1,1,1,1.0,104
351,352,Respond Naturally,Orange_5_2orange.jpg,-2.0,0.6004791986997589,1,2,6,1.0,104
352,353,Respond Naturally,SevenGrain_1_1.jpg,-2.0,1.2649363282689592,1,1,5,1.0,104
353,354,Respond Naturally,ClifBar_4_2bars.jpg,-2.0,0.7186098904057872,1,2,6,1.0,104
354,355,Respond Naturally,GreenApple_4_1.jpg,-2.0,0.6116777029455989,1,1,6,1.0,104
355,356,Respond Naturally,AllBranCereal_6_1cup.jpg,-2.0,0.9725641065087984,1,2,6,1.0,104
356,357,Respond Naturally,Doritos_2_3chips.jpg,1.0,0.7859637088477031,1,4,1,2.0,104
357,358,Respond Naturally,Triscuit_5_30crackers.jpg,-2.0,1.0741121509709046,1,1,6,1.0,104
358,359,Respond Naturally,KashiBars_1_0.5bar.jpg,-2.0,0.5510058098006994,1,1,5,1.0,104
359,360,Respond Naturally,ChipsAhoy_2_.5cookie.jpg,1.0,0.7787318226401112,6,5,1,6.0,104
360,361,Decrease Desire,RaisinBran_7_2cup.jpg,1.0,1.5205620948327123,4,5,2,4.0,104
361,362,Decrease Desire,CornFlakes_3_2tbsps.jpg,-2.0,0.9686240029259352,1,2,1,1.0,104
362,363,Decrease Desire,FrozenOkra_2_2pc.jpg,-2.0,0.7490533202653751,1,1,6,1.0,104
363,364,Decrease Desire,Broccoli_4_1.5c.jpg,-2.0,0.2947277308630873,4,1,6,6.0,104
364,365,Decrease Desire,Snickers_3_2Bars.jpg,-2.0,0.7358325906388927,1,1,1,1.0,104
365,366,Decrease Desire,AppleChips_2_3chips.jpg,-2.0,0.6693463362462353,1,1,1,1.0,104
366,367,Decrease Desire,FibreBrownies_2_1bar.jpg,-2.0,1.0051745933451457,1,1,3,2.0,104
367,368,Decrease Desire,Mars_2_0.5Bar.jpg,-1.0,1.3175595192296896,1,1,1,3.0,104
368,369,Decrease Desire,SlimStyles_2_2Tbsp.jpg,-1.0,2.182309048956085,3,1,2,1.0,104
369,370,Decrease Desire,FrozenOkra_5_0.5box.jpg,-2.0,1.6874574129542452,1,1,6,1.0,104
370,371,Decrease Desire,FrozenPeaches_5_1.5Cups.jpg,-2.0,0.6569278824172216,1,1,1,5.0,104
371,372,Decrease Desire,HoneyNutCheerios_5_2cup.jpg,-1.0,0.5414654562409851,1,1,3,1.0,104
372,373,Decrease Desire,FrozenPeaches_2_3Slices.jpg,-2.0,1.2802428609138587,1,1,6,4.0,104
373,374,Decrease Desire,Pringles_5_40Chips.jpg,-2.0,1.0910178182748496,4,5,1,3.0,104
374,375,Decrease Desire,HersheysKisses_3_15.jpg,1.0,0.9773965779822902,6,5,1,4.0,104
375,376,Focus on Healthiness,Strawberries_2_0.5c.jpg,-2.0,0.7165893756318837,1,1,6,2.0,104
376,377,Focus on Healthiness,FrozenCorn_4_2cups.jpg,-2.0,0.7170831715338863,1,1,5,1.0,104
377,378,Focus on Healthiness,GreenBeans_2_9beans.jpg,-2.0,0.5557242406503065,1,1,6,1.0,104
378,379,Focus on Healthiness,Avocado_5_1avacado.jpg,-2.0,1.3044331582204904,1,1,6,3.0,104
379,380,Focus on Healthiness,SkittlesSour_6_0.5pack.jpg,2.0,1.0287299694755347,6,6,1,6.0,104
380,381,Focus on Healthiness,LuckyCharms_3_2tbsps.jpg,-2.0,0.6448985922252177,1,1,1,1.0,104
381,382,Focus on Healthiness,LaysClassic_4_16Chips.jpg,-2.0,1.03536114669987,1,5,1,4.0,104
382,383,Focus on Healthiness,CheeseNips_2_5nips.jpg,-2.0,1.1960232893761713,1,1,1,1.0,104
383,384,Focus on Healthiness,PopTartStrawberry_2_0.5tart.jpg,-1.0,0.7831158293483895,1,4,2,2.0,104
384,385,Focus on Healthiness,MnMPlain_5_1bag.jpg,-1.0,1.4781692032120188,1,5,1,1.0,104
385,386,Focus on Healthiness,AlmondMilk_4_1glass.jpg,-1.0,2.1311404461594066,1,1,1,4.0,104
386,387,Focus on Healthiness,SkimMilk_1_1Tbsp.jpg,-1.0,1.1298634762642903,1,1,6,2.0,104
387,388,Focus on Healthiness,SpeltCakes_2_0.5.jpg,-2.0,0.7040109798326739,1,2,1,1.0,104
388,389,Focus on Healthiness,RedPepper_5_1pepper.jpg,-2.0,1.24831975394045,1,1,6,1.0,104
389,390,Focus on Healthiness,Asparagus_6_FullPack.jpg,,,1,1,6,1.0,104
390,391,Respond Naturally,Tuna_4_1can.jpg,-2.0,0.6553239010390826,1,1,6,2.0,104
391,392,Respond Naturally,Reese_4_5Cup.jpg,-2.0,1.10562100536481,1,1,1,1.0,104
392,393,Respond Naturally,AllBranCereal_6_1cup.jpg,-2.0,0.9245256337671891,1,2,6,1.0,104
393,394,Respond Naturally,Mentos_5_1tube.jpg,1.0,0.6431620386065333,6,5,6,4.0,104
394,395,Respond Naturally,Triscuit_5_30crackers.jpg,-1.0,1.1901325209037168,1,1,6,1.0,104
395,396,Respond Naturally,Orange_5_2orange.jpg,-1.0,0.9476154390431476,1,2,6,1.0,104
396,397,Respond Naturally,BrusselsSprouts_2_3.jpg,-1.0,0.4689880776204518,1,5,6,5.0,104
397,398,Respond Naturally,IceCreamVanilla_4_3scoops.jpg,1.0,1.0577056964975782,6,6,1,5.0,104
398,399,Respond Naturally,PureFit_4_2Bars.jpg,-2.0,1.7925840522148064,1,2,6,1.0,104
399,400,Respond Naturally,Tempeh_2_1Tbsp.jpg,-2.0,0.8206294928459101,1,1,1,1.0,104
400,401,Respond Naturally,OatmealSquares_7_2Cups.jpg,-2.0,0.8322967040512594,1,2,6,1.0,104
401,402,Respond Naturally,IcebergLettuce_4_8leaves.jpg,-1.0,1.1549760771304136,3,4,6,5.0,104
402,403,Respond Naturally,Smartfood_4_100Chips.jpg,-1.0,0.8378855499686324,1,4,6,5.0,104
403,404,Respond Naturally,OatBran_2_2T.jpg,-2.0,1.2281610778227332,4,1,6,1.0,104
404,405,Respond Naturally,BBQCrisps_6_1cup.jpg,-1.0,0.8785974827842438,1,1,1,1.0,104
405,406,Focus on Healthiness,LuckyCharms_6_1cup.jpg,-1.0,1.5205119169550017,1,2,1,1.0,104
406,407,Focus on Healthiness,Fritos_5_1c.jpg,-2.0,0.9759340069722384,5,1,1,1.0,104
407,408,Focus on Healthiness,RedPepper_2_2pc.jpg,-2.0,0.8807785097233136,1,1,6,1.0,104
408,409,Focus on Healthiness,Cauliflower_2_3chunks.jpg,-1.0,1.7789299682262936,1,1,6,4.0,104
409,410,Focus on Healthiness,Skittles_6_0.75pack.jpg,1.0,1.2496146852427046,6,6,1,6.0,104
410,411,Focus on Healthiness,Raspberries_4_.5c.jpg,-2.0,0.9619634602422592,1,2,6,1.0,104
411,412,Focus on Healthiness,AllBranBar_3_1bar.jpg,-2.0,0.9620090764947236,1,1,6,1.0,104
412,413,Focus on Healthiness,Raspberries_5_.5bag.jpg,-2.0,0.7469635258166818,1,1,1,1.0,104
413,414,Focus on Healthiness,Asparagus_3_7.jpg,-2.0,1.7540015429694904,1,1,6,1.0,104
414,415,Focus on Healthiness,SlicedTurkey_2_0.5slice.jpg,1.0,1.1941247980794287,1,5,3,5.0,104
415,416,Focus on Healthiness,FrozenCorn_2_0.5cup.jpg,-2.0,0.6110718621275737,1,1,6,3.0,104
416,417,Focus on Healthiness,CheeseNips_5_1c.jpg,-2.0,1.1865912744106026,1,1,1,1.0,104
417,418,Focus on Healthiness,AllBranBar_1_.25bar.jpg,-2.0,0.63452802291431,1,1,6,1.0,104
418,419,Focus on Healthiness,DriedApricots_2_2.jpg,-1.0,0.6586547425758909,1,1,1,1.0,104
419,420,Focus on Healthiness,Beets_2_5pc.jpg,-2.0,0.5425271744607016,1,1,1,1.0,104
420,421,Respond Naturally,KashiBars_4_3bars.jpg,1.0,2.092501201703272,1,1,6,1.0,104
421,422,Respond Naturally,SevenGrain_3_5.jpg,-2.0,0.6186646869246033,1,1,6,3.0,104
422,423,Respond Naturally,GreenApple_2_1slice.jpg,-2.0,0.7200704657007009,1,1,6,2.0,104
423,424,Respond Naturally,Reese_1_1Cup.jpg,1.0,0.6309779382718261,1,1,1,1.0,104
424,425,Respond Naturally,Doritos_5_20chips.jpg,1.0,0.9455495931324548,4,5,1,4.0,104
425,426,Respond Naturally,FruitCrisps_1_0.5bar.jpg,-2.0,2.0448741305081057,1,1,1,1.0,104
426,427,Respond Naturally,Butternut_3_0.3cup.jpg,-2.0,0.5827849404813605,1,2,6,1.0,104
427,428,Respond Naturally,EnglishCucumber_2_2pc.jpg,1.0,0.9931800855410984,6,4,6,4.0,104
428,429,Respond Naturally,KashiBars_1_0.5bar.jpg,-2.0,0.5742735184612684,1,1,5,1.0,104
429,430,Respond Naturally,OatmealSquares_3_2tbsp.jpg,-2.0,1.2161226643802363,1,1,3,1.0,104
430,431,Respond Naturally,EnglishCucumber_5_0.5cuc.JPG,1.0,1.094146237715904,5,4,6,4.0,104
431,432,Respond Naturally,SunChips_4_20Chips.jpg,1.0,0.7294072567456169,6,4,1,4.0,104
432,433,Respond Naturally,BabyFoodSweetPotatos_5_1jar.jpg,-2.0,0.6597275797539623,1,2,1,1.0,104
433,434,Respond Naturally,ClifBar_4_2bars.jpg,-2.0,3.2155692822416317,1,2,6,1.0,104
434,435,Respond Naturally,Orange_1_0.25orange.jpg,-2.0,2.073488348753017,1,1,6,2.0,104
435,436,Decrease Desire,ProMax_4_1bar.jpg,-2.0,1.2853108262715978,1,1,1,1.0,104
436,437,Decrease Desire,NatureValleyChocolate_1_0.25bar.jpg,-2.0,2.1048073255078634,4,5,1,4.0,104
437,438,Decrease Desire,Mackerel_3_4fish.jpg,-2.0,0.5774070697225397,1,1,6,1.0,104
438,439,Decrease Desire,Prunes_2_3.jpg,-2.0,1.721426693831745,1,1,6,1.0,104
439,440,Decrease Desire,FrozenBroccoli_6_0.5bag.jpg,1.0,0.7996041079677525,4,1,6,6.0,104
440,441,Decrease Desire,HoneyNutCheerios_2_2tbsp.jpg,1.0,1.8187965749093564,1,1,1,1.0,104
441,442,Decrease Desire,TofuDessert_4_1pck.jpg,-2.0,3.164417785548721,1,1,5,,104
442,443,Decrease Desire,Prunes_5_1c.jpg,-2.0,2.4065531164160348,1,1,1,1.0,104
443,444,Decrease Desire,Snickers_2_1Bar.jpg,-2.0,2.195906967936025,1,1,1,1.0,104
444,445,Decrease Desire,Pringles_2_3Chips.jpg,1.0,0.8943222594170948,5,6,1,3.0,104
445,446,Decrease Desire,SlimStyles_6_2c.jpg,1.0,0.7313408155387151,1,5,3,4.0,104
446,447,Decrease Desire,AppleChips_5_1c..jpg,-2.0,0.7024118451663526,1,1,1,1.0,104
447,448,Decrease Desire,FibreBrownies_3_2bars.jpg,-1.0,1.454685387572681,1,5,4,2.0,104
448,449,Decrease Desire,MangoChunks_2_3.jpg,-1.0,0.02578287463256856,1,2,6,1.0,104
449,450,Decrease Desire,RitzCrackers_5_15Crackers.jpg,-1.0,0.02671601204201579,1,1,1,2.0,104
450,451,Focus on Healthiness,Cauliflower_6_0.5bag.jpg,-2.0,0.9591110191176996,1,1,6,4.0,104
451,452,Focus on Healthiness,GreenBeans_4_.5pck.jpg,-2.0,0.8781923534625093,1,1,6,1.0,104
452,453,Focus on Healthiness,VanillaGreekYogurt_4_1cup.jpg,-2.0,0.6967434559264802,1,1,6,1.0,104
453,454,Focus on Healthiness,OikosYogurt_3_2spoonfuls.jpg,-2.0,0.4402481295910548,1,1,6,1.0,104
454,455,Focus on Healthiness,Spinach_4_.5box.jpg,-2.0,0.9939490044562262,1,1,6,1.0,104
455,456,Focus on Healthiness,CannedArtichoke_2_2.jpg,,,1,1,6,1.0,104
456,457,Focus on Healthiness,LaysClassic_3_8Chips.jpg,1.0,2.000551956625713,5,1,1,5.0,104
457,458,Focus on Healthiness,Shreddies_2_1T.jpg,-2.0,0.30756072235817555,1,1,1,1.0,104
458,459,Focus on Healthiness,OikosYogurt_6_1c.jpg,-2.0,0.527017364394851,1,1,1,1.0,104
459,460,Focus on Healthiness,AlmondMilk_2_0.25glass.jpg,-2.0,0.6620711145878886,1,1,6,5.0,104
460,461,Focus on Healthiness,DriedApricots_5_0.75cup.jpg,-2.0,0.645985969582398,1,2,3,1.0,104
461,462,Focus on Healthiness,SkimMilk_4_1glass.jpg,-2.0,0.7761975548564806,1,1,5,2.0,104
462,463,Focus on Healthiness,VanillaGreekYogurt_2_1spoon.jpg,-2.0,0.6619941371682216,1,1,1,1.0,104
463,464,Focus on Healthiness,Fritos_2_5chips.jpg,1.0,1.0163220644099056,6,1,1,1.0,104
464,465,Focus on Healthiness,FrozenPeas_6_0.5bag.jpg,-1.0,1.4919507276135846,1,1,6,2.0,104
465,466,Decrease Desire,FrozenBlueberries_3_1cup.jpg,-2.0,0.6851418180740438,1,1,5,1.0,104
466,467,Decrease Desire,BabyFoodCarrots_5_1jar.jpg,-2.0,1.2684251160826534,1,1,1,1.0,104
467,468,Decrease Desire,Mackerel_1_1fish.jpg,-2.0,0.6206216240461799,1,1,1,1.0,104
468,469,Decrease Desire,Aero_3_1bar.jpg,1.0,0.6816028523826391,6,5,1,6.0,104
469,470,Decrease Desire,Celery_4_0.5bunch.jpg,-2.0,0.4974779915864929,1,1,6,1.0,104
470,471,Decrease Desire,VegetableThins_5_25Chips.jpg,-2.0,1.0320998699389747,1,1,6,1.0,104
471,472,Decrease Desire,Bananas_2_0.5.jpg,-2.0,0.5936424632527633,1,1,6,3.0,104
472,473,Decrease Desire,MangoChunks_5_1cup.jpg,-2.0,0.7186309879107284,1,2,6,2.0,104
473,474,Decrease Desire,Almonds_4_40.jpg,-2.0,1.3144524824092514,1,5,6,1.0,104
474,475,Decrease Desire,Almonds_2_10.jpg,-2.0,0.8659489519923227,1,2,6,1.0,104
475,476,Decrease Desire,NatureValleyChocolate_4_2bars.jpg,1.0,0.7088893526597531,5,4,1,4.0,104
476,477,Decrease Desire,Caramilk_5_2bars.jpg,1.0,0.6471280864352593,6,6,1,1.0,104
477,478,Decrease Desire,BabyFoodCarrots_3_2Tbsp.jpg,-2.0,1.1207453581228035,1,1,6,1.0,104
478,479,Decrease Desire,RitzCrackers_2_3Crackers.jpg,-2.0,0.9666653552048956,1,1,1,1.0,104
479,480,Decrease Desire,ClamJuice_1_1T.jpg,-2.0,0.6637366779104923,1,4,1,1.0,104
480,481,Respond Naturally,ChipsAhoy_2_.5cookie.jpg,2.0,1.1036942890132195,6,5,1,6.0,104
481,482,Respond Naturally,GreenPepper_2_2pc.jpg,-2.0,0.7045438346540323,1,1,6,3.0,104
482,483,Respond Naturally,SunChips_2_3Chips.jpg,-1.0,2.9441745482981787,1,2,1,4.0,104
483,484,Respond Naturally,Tuna_2_1T.jpg,-2.0,0.6260108988572028,1,1,6,1.0,104
484,485,Respond Naturally,GreenApple_4_1.jpg,1.0,0.5318293085510959,1,1,6,1.0,104
485,486,Respond Naturally,Smartfood_2_8Chips.jpg,-2.0,0.4668495308069396,6,4,5,6.0,104
486,487,Respond Naturally,ChipsAhoy_4_2cookies.jpg,2.0,0.5939121693372726,6,1,1,6.0,104
487,488,Respond Naturally,MnMPeanuts_4_45.jpg,-2.0,0.7745154556396301,1,1,1,3.0,104
488,489,Respond Naturally,BrusselsSprouts_4_1Box.jpg,,,4,1,5,5.0,104
489,490,Respond Naturally,HoneyNutCheerios_5_2cup.jpg,-2.0,0.6518764529464534,1,1,3,1.0,104
490,491,Respond Naturally,PureFit_2_0.5Bars.jpg,1.0,2.3333980513853017,1,1,1,1.0,104
491,492,Respond Naturally,AllBranCereal_2_1tbsp.jpg,-2.0,0.5714558597173891,1,1,1,1.0,104
492,493,Respond Naturally,RiceKrispiesCereal_7_2cups.jpg,-2.0,0.7667330383046647,1,2,1,2.0,104
493,494,Respond Naturally,DriedHerring_1_1fish.jpg,-2.0,0.6226897507658578,1,1,6,1.0,104
494,495,Respond Naturally,ClifBar_2_0.5bar.jpg,-2.0,0.6722272875267663,1,2,6,1.0,104
495,496,Focus on Healthiness,Beets_5_1can.jpg,-2.0,0.5125701278520864,1,1,6,1.0,104
496,497,Focus on Healthiness,JuniorMints_4_1box.jpg,-2.0,0.09038574811711443,5,1,1,2.0,104
497,498,Focus on Healthiness,CannedArtichoke_5_1can.jpg,-2.0,0.5023113183633541,1,1,4,1.0,104
498,499,Focus on Healthiness,JuniorMints_2_9pc.jpg,-2.0,0.044971350143896416,1,4,1,2.0,104
499,500,Focus on Healthiness,MnMPlain_3_1tbsp.jpg,-2.0,0.7854419729992514,1,4,1,1.0,104
500,501,Focus on Healthiness,PopTartStrawberry_5_3tarts.jpg,-2.0,0.7342522726903553,1,1,1,1.0,104
501,502,Focus on Healthiness,FrozenPeas_2_2tbsp.jpg,-2.0,2.0297842750514974,1,1,1,1.0,104
502,503,Focus on Healthiness,Avocado_2_2pc.jpg,-2.0,3.0654071449898765,1,1,6,3.0,104
503,504,Focus on Healthiness,Strawberries_3_0.5bag.jpg,-2.0,0.6690375712496461,1,2,1,1.0,104
504,505,Focus on Healthiness,IceCreamChocolate_1_1tsp.jpg,1.0,1.9936296907035285,6,5,6,5.0,104
505,506,Focus on Healthiness,IceCreamChocolate_4_3scoops.jpg,-2.0,3.4247691105047124,6,6,1,5.0,104
506,507,Focus on Healthiness,Shreddies_5_2c.jpg,-2.0,0.5466984954036889,1,1,1,2.0,104
507,508,Focus on Healthiness,SpeltCakes_5_4.jpg,-2.0,1.0491580665766378,1,1,4,1.0,104
508,509,Focus on Healthiness,Spinach_2_.5c.jpg,-2.0,2.264067338706809,1,1,6,6.0,104
509,510,Focus on Healthiness,SlicedTurkey_5_4slices.jpg,,,5,6,1,5.0,104
510,511,Decrease Desire,WaterChestnuts_5_0.5can.jpg,-2.0,0.4711460113467183,1,1,6,1.0,104
511,512,Decrease Desire,ProMax_2_0.25bar.jpg,-2.0,1.0464821033165208,1,1,6,1.0,104
512,513,Decrease Desire,YorkPeppermintPatties_2_3.jpg,1.0,0.7091670415757108,1,4,5,4.0,104
513,514,Decrease Desire,VegetableThins_2_5Chips.jpg,-2.0,0.6171716100434423,1,2,6,1.0,104
514,515,Decrease Desire,Mars_4_2Bars.jpg,-1.0,1.3277436321150162,1,1,1,1.0,104
515,516,Decrease Desire,RaisinBran_3_2tbsp.jpg,-2.0,1.451657038785925,1,6,2,6.0,104
516,517,Decrease Desire,Aero_1_1pc.jpg,2.0,1.9078654389086296,6,5,1,6.0,104
517,518,Decrease Desire,FrozenBlueberries_1_1tbsp.jpg,-2.0,3.820924858067883,1,1,6,1.0,104
518,519,Decrease Desire,WaterChestnuts_3_8pc.jpg,-2.0,3.060287006039289,1,1,6,1.0,104
519,520,Decrease Desire,Celery_2_1stalk.jpg,-2.0,1.312653776658408,5,1,6,1.0,104
520,521,Decrease Desire,YorkPeppermintPatties_4_12.jpg,1.0,0.6727783888491103,4,6,1,5.0,104
521,522,Decrease Desire,CornFlakes_6_2cups.jpg,-2.0,0.6326474930174301,1,1,6,1.0,104
522,523,Decrease Desire,HersheysKisses_2_5.jpg,-2.0,0.030591967777581882,6,5,1,6.0,104
523,524,Decrease Desire,Bananas_3_1.jpg,-2.0,0.031193246970360636,1,1,5,1.0,104
524,525,Decrease Desire,Caramilk_2_2pc.jpg,-2.0,1.5461964315545629,5,5,1,4.0,104
525,526,Respond Naturally,RiceKrispiesCereal_3_2tbsp.jpg,-2.0,1.2447753713277052,1,1,1,1.0,104
526,527,Respond Naturally,Tempeh_4_.5pack.jpg,-2.0,0.7630680577349267,1,1,1,1.0,104
527,528,Respond Naturally,Doritos_2_3chips.jpg,1.0,1.8781016911671031,1,4,1,2.0,104
528,529,Respond Naturally,HoneyNutCheerios_2_2tbsp.jpg,1.0,1.2812518353384803,1,1,1,1.0,104
529,530,Respond Naturally,SevenGrain_1_1.jpg,1.0,0.5362061877312954,1,1,5,1.0,104
530,531,Respond Naturally,Triscuit_2_2crackers.jpg,1.0,0.02829604490398196,1,1,1,1.0,104
531,532,Respond Naturally,GreenPepper_6_1pepper.jpg,-2.0,0.20978884807846046,1,1,6,1.0,104
532,533,Respond Naturally,MnMPeanuts_2_4.jpg,-2.0,1.7068029794245376,1,5,1,1.0,104
533,534,Respond Naturally,Cheerios_5_2c.jpg,-2.0,0.5277001826325431,1,1,5,1.0,104
534,535,Respond Naturally,FruitCrisps_3_2bars.jpg,-2.0,0.6647579117125133,1,1,1,1.0,104
535,536,Respond Naturally,Mentos_2_3pc.jpg,1.0,0.5386760225592298,6,5,1,3.0,104
536,537,Respond Naturally,DriedHerring_3_4fish.jpg,-2.0,0.6780137088207994,1,1,1,1.0,104
537,538,Respond Naturally,Butternut_7_2cups.jpg,-2.0,0.4575184417917626,1,2,6,1.0,104
538,539,Respond Naturally,OatBran_4_1bowl.jpg,1.0,1.4186662264692131,1,4,6,1.0,104
539,540,Respond Naturally,IceCreamVanilla_1_2tsp.jpg,1.0,1.3094124569979613,5,6,1,5.0,104
0,1,Respond Naturally,WelchsFruitSnacks_1_1bag.jpg,1.0,1.1999925303480268,6,6,3,5.0,105
1,2,Respond Naturally,ChipsAhoy_4_2cookies.jpg,-1.0,1.2398043521270663,3,3,2,5.0,105
2,3,Respond Naturally,FrozenBroccoli_6_0.5bag.jpg,2.0,1.2104990811185417,5,6,6,6.0,105
3,4,Respond Naturally,Reese_4_5Cup.jpg,1.0,0.8793460119750307,1,4,2,4.0,105
4,5,Respond Naturally,Asparagus_6_FullPack.jpg,2.0,0.8703673187310415,5,3,5,6.0,105
5,6,Respond Naturally,RedPepper_5_1pepper.jpg,-2.0,1.2460802856485316,5,3,6,4.0,105
6,7,Respond Naturally,Cheetos_3_10pc.jpg,1.0,0.8083039156372251,4,5,1,5.0,105
7,8,Respond Naturally,HoneyNutCheerios_5_2cup.jpg,-1.0,0.8966299893436371,3,2,2,2.0,105
8,9,Respond Naturally,RaisinBran_7_2cup.jpg,-1.0,1.397760700847357,1,2,3,2.0,105
9,10,Respond Naturally,WelchsFruitSnacks_3_4bags.jpg,1.0,0.8805722323941154,6,5,3,6.0,105
10,11,Respond Naturally,Cheerios_5_2c.jpg,1.0,0.7426416796342892,2,4,4,6.0,105
11,12,Respond Naturally,GreenBeans_2_9beans.jpg,1.0,1.3068005768163855,4,4,4,5.0,105
12,13,Respond Naturally,ClifBar_4_2bars.jpg,-1.0,0.9231347109043782,3,2,2,4.0,105
13,14,Respond Naturally,Broccoli_4_1.5c.jpg,2.0,1.034114073566343,6,6,6,6.0,105
14,15,Respond Naturally,LuckyCharms_3_2tbsps.jpg,-1.0,1.3407361770086936,3,2,2,2.0,105
15,16,Focus on Healthiness,Spinach_4_.5box.jpg,2.0,0.9579871966743668,4,3,6,4.0,105
16,17,Focus on Healthiness,Spinach_2_.5c.jpg,2.0,0.6069525927960058,5,2,6,3.0,105
17,18,Focus on Healthiness,Shreddies_5_2c.jpg,-1.0,0.9929317701416948,2,3,3,2.0,105
18,19,Focus on Healthiness,PureFit_2_0.5Bars.jpg,-1.0,1.484546942774614,1,1,2,2.0,105
19,20,Focus on Healthiness,FibreBrownies_2_1bar.jpg,-1.0,1.1009358162991705,2,2,2,2.0,105
20,21,Focus on Healthiness,HoneyNutCheerios_5_2cup.jpg,-2.0,0.9661507854825686,3,2,2,2.0,105
21,22,Focus on Healthiness,Caramilk_5_2bars.jpg,-2.0,1.4798866779610762,6,6,1,6.0,105
22,23,Focus on Healthiness,NatureValleyChocolate_4_2bars.jpg,-1.0,1.6441990736493608,2,2,2,,105
23,24,Focus on Healthiness,Fritos_2_5chips.jpg,-1.0,1.1295135089521864,3,2,2,3.0,105
24,25,Focus on Healthiness,Celery_4_0.5bunch.jpg,1.0,0.6565707567106074,4,3,6,4.0,105
25,26,Focus on Healthiness,RiceKrispiesCereal_7_2cups.jpg,-1.0,1.0293617210536468,3,3,3,3.0,105
26,27,Focus on Healthiness,PopTartStrawberry_5_3tarts.jpg,-2.0,1.243197627045447,1,1,1,1.0,105
27,28,Focus on Healthiness,SkittlesSour_6_0.5pack.jpg,-1.0,1.3268312194977625,6,6,1,5.0,105
28,29,Focus on Healthiness,GreenApple_4_1.jpg,2.0,0.7988816048691658,5,6,6,6.0,105
29,30,Focus on Healthiness,BrusselsSprouts_2_3.jpg,1.0,1.296817186815133,4,4,4,5.0,105
30,31,Decrease Desire,CornFlakes_3_2tbsps.jpg,-1.0,1.6864211412830628,2,1,3,3.0,105
31,32,Decrease Desire,CannedArtichoke_2_2.jpg,-1.0,2.4586953881453155,1,1,4,1.0,105
32,33,Decrease Desire,EnglishCucumber_2_2pc.jpg,-1.0,3.2524816637132967,5,4,6,5.0,105
33,34,Decrease Desire,Doritos_2_3chips.jpg,-1.0,2.772008247407939,6,6,1,6.0,105
34,35,Decrease Desire,CheeseNips_5_1c.jpg,-2.0,2.4112553976792697,3,4,2,4.0,105
35,36,Decrease Desire,SevenGrain_1_1.jpg,-2.0,1.1862623398947107,1,2,4,2.0,105
36,37,Decrease Desire,SevenGrain_3_5.jpg,1.0,2.501304623257965,2,2,2,2.0,105
37,38,Decrease Desire,FruitCrisps_1_0.5bar.jpg,-1.0,1.2829572752989409,2,1,1,1.0,105
38,39,Decrease Desire,ClamJuice_1_1T.jpg,-2.0,2.420719618328804,1,1,2,1.0,105
39,40,Decrease Desire,PCChipCookie_2_0.5cookie.jpg,-2.0,1.5282828979734404,4,2,2,6.0,105
40,41,Decrease Desire,OatmealSquares_7_2Cups.jpg,-2.0,2.108026284053267,2,1,2,2.0,105
41,42,Decrease Desire,AppleChips_5_1c..jpg,1.0,1.9658414506402548,6,6,2,6.0,105
42,43,Decrease Desire,Nutella_1_0.5spoon.jpg,-1.0,1.9797914541477442,2,4,2,6.0,105
43,44,Decrease Desire,MangoChunks_2_3.jpg,-1.0,2.5277087040840343,3,6,2,5.0,105
44,45,Decrease Desire,RitzCrackers_2_3Crackers.jpg,-2.0,1.294308010831628,3,3,2,2.0,105
45,46,Respond Naturally,FrozenBroccoli_2_3chunks.jpg,2.0,0.7909917132483315,6,6,6,6.0,105
46,47,Respond Naturally,RomaineLettuce_2_3leaves.jpg,2.0,1.3340343022409795,2,4,5,4.0,105
47,48,Respond Naturally,AllBranBar_1_.25bar.jpg,-2.0,0.8902785039936134,1,2,2,2.0,105
48,49,Respond Naturally,Almonds_2_10.jpg,1.0,1.969348195850216,4,4,4,6.0,105
49,50,Respond Naturally,HoneyNutCheerios_2_2tbsp.jpg,-2.0,0.8448393540065808,2,2,2,4.0,105
50,51,Respond Naturally,Beets_5_1can.jpg,-2.0,0.8350666538181031,2,2,4,2.0,105
51,52,Respond Naturally,Snickers_3_2Bars.jpg,2.0,0.7103571007028222,6,6,1,6.0,105
52,53,Respond Naturally,BabyFoodSweetPotatos_5_1jar.jpg,-2.0,1.224425706324837,1,2,2,1.0,105
53,54,Respond Naturally,Prunes_5_1c.jpg,-1.0,0.926857562852092,2,1,3,1.0,105
54,55,Respond Naturally,ProMax_2_0.25bar.jpg,-1.0,0.8755441869852802,2,1,2,2.0,105
55,56,Respond Naturally,FrozenPeas_2_2tbsp.jpg,-1.0,0.7933902699514874,4,3,4,4.0,105
56,57,Respond Naturally,AllBranBar_3_1bar.jpg,-1.0,2.231506195535076,2,2,2,2.0,105
57,58,Respond Naturally,JuniorMints_4_1box.jpg,-1.0,2.1859706813293087,3,4,2,2.0,105
58,59,Respond Naturally,Almonds_4_40.jpg,1.0,0.9166401047341424,6,3,3,5.0,105
59,60,Respond Naturally,JuniorMints_2_9pc.jpg,-1.0,1.3636423507623476,2,2,2,3.0,105
60,61,Focus on Healthiness,VegetableThins_5_25Chips.jpg,-1.0,1.0173589589930998,3,3,3,4.0,105
61,62,Focus on Healthiness,VegetableThins_2_5Chips.jpg,-1.0,0.6303933313683956,3,1,2,1.0,105
62,63,Focus on Healthiness,FrozenOkra_5_0.5box.jpg,2.0,0.7868104185117772,4,4,4,4.0,105
63,64,Focus on Healthiness,PureFit_4_2Bars.jpg,-1.0,1.1989960558039456,1,2,2,2.0,105
64,65,Focus on Healthiness,RufflesSourCreamOnion_5_20chips.jpg,2.0,0.7263045234731179,6,6,2,6.0,105
65,66,Focus on Healthiness,RufflesSourCreamOnion_3_5chips.jpg,-1.0,0.6777298300858092,6,6,1,6.0,105
66,67,Focus on Healthiness,OikosYogurt_3_2spoonfuls.jpg,1.0,2.2257579844026623,3,3,3,5.0,105
67,68,Focus on Healthiness,DriedHerring_3_4fish.jpg,1.0,1.9686194770902148,1,1,1,1.0,105
68,69,Focus on Healthiness,Onion_2_1ring.jpg,1.0,1.1920789753230563,3,4,6,3.0,105
69,70,Focus on Healthiness,Aero_1_1pc.jpg,-1.0,0.9381401591890608,6,6,3,6.0,105
70,71,Focus on Healthiness,Shreddies_2_1T.jpg,-1.0,3.578991574117936,2,1,3,3.0,105
71,72,Focus on Healthiness,BrusselsSprouts_4_1Box.jpg,1.0,0.8157863975911823,4,4,4,5.0,105
72,73,Focus on Healthiness,GreenApple_2_1slice.jpg,1.0,0.8737708572934935,4,5,6,5.0,105
73,74,Focus on Healthiness,Celery_2_1stalk.jpg,1.0,0.6374310553937903,4,2,6,4.0,105
74,75,Focus on Healthiness,Raspberries_4_.5c.jpg,-1.0,0.7483847589437573,3,3,4,4.0,105
75,76,Decrease Desire,FrozenCorn_2_0.5cup.jpg,-1.0,1.1214859134333892,2,2,4,3.0,105
76,77,Decrease Desire,FrozenPeaches_2_3Slices.jpg,1.0,1.5199656395989225,4,5,4,6.0,105
77,78,Decrease Desire,CornFlakes_6_2cups.jpg,-1.0,1.6847615669848892,3,2,2,3.0,105
78,79,Decrease Desire,Bananas_3_1.jpg,1.0,1.7202974404181075,4,5,5,5.0,105
79,80,Decrease Desire,Bananas_2_0.5.jpg,-1.0,0.7603952187382674,4,5,2,5.0,105
80,81,Decrease Desire,Triscuit_5_30crackers.jpg,-1.0,1.44496063607221,2,2,2,3.0,105
81,82,Decrease Desire,Triscuit_2_2crackers.jpg,-1.0,2.192385174052106,2,2,3,3.0,105
82,83,Decrease Desire,OatBran_2_2T.jpg,-2.0,2.2722970549612,2,2,3,4.0,105
83,84,Decrease Desire,Avocado_2_2pc.jpg,2.0,2.4058840903817327,6,6,4,6.0,105
84,85,Decrease Desire,FrozenPeaches_5_1.5Cups.jpg,1.0,1.8393702569846937,4,4,5,6.0,105
85,86,Decrease Desire,OatmealSquares_3_2tbsp.jpg,-1.0,1.1101149357127724,2,1,2,2.0,105
86,87,Decrease Desire,FrootLoops_2_2T.jpg,-2.0,1.272100050006884,3,2,2,4.0,105
87,88,Decrease Desire,SpeltCakes_2_0.5.jpg,-2.0,0.7523975588492249,1,2,2,4.0,105
88,89,Decrease Desire,GoldfishBits_3_0.25Cups.jpg,-2.0,2.21468265666499,3,1,3,4.0,105
89,90,Decrease Desire,KashiBars_1_0.5bar.jpg,-1.0,0.9507678631607632,1,3,2,2.0,105
90,91,Focus on Healthiness,YorkPeppermintPatties_2_3.jpg,-2.0,1.4200992380383468,2,4,2,4.0,105
91,92,Focus on Healthiness,FrozenBlueberries_1_1tbsp.jpg,1.0,1.2545446562617144,4,3,4,5.0,105
92,93,Focus on Healthiness,OikosYogurt_6_1c.jpg,1.0,1.026785261178702,3,2,3,6.0,105
93,94,Focus on Healthiness,DriedHerring_1_1fish.jpg,-2.0,0.6285139440169587,1,1,3,1.0,105
94,95,Focus on Healthiness,Skittles_3_14pieces.jpg,-1.0,0.917867180457506,6,6,1,6.0,105
95,96,Focus on Healthiness,Raspberries_5_.5bag.jpg,1.0,1.056195449441475,4,3,4,5.0,105
96,97,Focus on Healthiness,HoneyNutCheerios_2_2tbsp.jpg,-2.0,1.0571702105698932,2,2,2,4.0,105
97,98,Focus on Healthiness,SkittlesSour_3_8pieces.jpg,-2.0,0.8954701975126227,6,6,2,6.0,105
98,99,Focus on Healthiness,LaysClassic_4_16Chips.jpg,-1.0,0.7183541903896185,5,6,1,5.0,105
99,100,Focus on Healthiness,Tempeh_2_1Tbsp.jpg,-1.0,1.9581154922307176,1,2,2,3.0,105
100,101,Focus on Healthiness,YorkPeppermintPatties_4_12.jpg,-1.0,1.025435877025302,2,5,2,4.0,105
101,102,Focus on Healthiness,Fritos_5_1c.jpg,-1.0,1.0112928599810402,3,3,2,3.0,105
102,103,Focus on Healthiness,SkittlesSour_6_0.5pack.jpg,-1.0,0.8060179739222804,6,6,1,5.0,105
103,104,Focus on Healthiness,Skittles_6_0.75pack.jpg,-1.0,0.9135342118634072,6,6,2,6.0,105
104,105,Focus on Healthiness,BabyFoodCarrots_5_1jar.jpg,-2.0,1.287681972991777,1,2,4,2.0,105
105,106,Respond Naturally,DriedApricots_2_2.jpg,1.0,1.0279587378681754,2,2,2,4.0,105
106,107,Respond Naturally,Reese_1_1Cup.jpg,1.0,1.5843700089462798,4,2,1,3.0,105
107,108,Respond Naturally,Beets_2_5pc.jpg,1.0,2.2374702283032093,2,2,1,2.0,105
108,109,Respond Naturally,Asparagus_3_7.jpg,2.0,1.0318791649724517,6,6,6,6.0,105
109,110,Respond Naturally,ClifBar_2_0.5bar.jpg,-1.0,1.1875338914096574,3,2,2,5.0,105
110,111,Respond Naturally,AlmondMilk_2_0.25glass.jpg,-1.0,1.2190906068835832,1,1,4,3.0,105
111,112,Respond Naturally,Mackerel_3_4fish.jpg,-1.0,0.8319450803783184,1,1,3,1.0,105
112,113,Respond Naturally,FrozenPeas_6_0.5bag.jpg,-1.0,1.9084354613487449,4,2,6,5.0,105
113,114,Respond Naturally,GreenPepper_2_2pc.jpg,1.0,0.9329151088259096,4,5,6,4.0,105
114,115,Respond Naturally,GreenBeans_4_.5pck.jpg,1.0,0.8424370909870049,2,4,6,6.0,105
115,116,Respond Naturally,SlimStyles_2_2Tbsp.jpg,-1.0,0.7915656220366145,1,1,2,3.0,105
116,117,Respond Naturally,Cheetos_6_2c.jpg,1.0,1.1370558621656528,5,3,1,5.0,105
117,118,Respond Naturally,ProMax_4_1bar.jpg,-1.0,0.8316576983315827,2,2,2,2.0,105
118,119,Respond Naturally,GreenPepper_6_1pepper.jpg,1.0,0.8769175196421202,4,4,5,6.0,105
119,120,Respond Naturally,Snickers_2_1Bar.jpg,2.0,0.8705552004466881,6,6,1,5.0,105
120,121,Decrease Desire,AllBranCereal_2_1tbsp.jpg,-1.0,1.6576475840811329,2,2,2,2.0,105
121,122,Decrease Desire,CannedArtichoke_5_1can.jpg,-1.0,0.6203714526991462,2,1,3,2.0,105
122,123,Decrease Desire,Butternut_3_0.3cup.jpg,-1.0,1.169361959429807,2,1,4,2.0,105
123,124,Decrease Desire,Smartfood_4_100Chips.jpg,-1.0,2.527606352739894,6,6,2,5.0,105
124,125,Decrease Desire,Strawberries_2_0.5c.jpg,1.0,1.4936573527893415,4,4,5,5.0,105
125,126,Decrease Desire,FrootLoops_6_2Cups.jpg,-1.0,0.8991277612767591,2,1,1,5.0,105
126,127,Decrease Desire,VanillaGreekYogurt_4_1cup.jpg,-1.0,1.9276903435638812,2,2,2,4.0,105
127,128,Decrease Desire,WaterChestnuts_5_0.5can.jpg,-1.0,0.9062800959991364,2,1,4,2.0,105
128,129,Decrease Desire,GoldfishBits_5_0.75Cups.jpg,-1.0,1.1596293227767092,3,2,3,2.0,105
129,130,Decrease Desire,BBQCrisps_6_1cup.jpg,-1.0,1.4225491129645889,3,2,1,4.0,105
130,131,Decrease Desire,Doritos_5_20chips.jpg,2.0,1.4775890470946251,6,6,1,6.0,105
131,132,Decrease Desire,SpeltCakes_5_4.jpg,-1.0,1.8985512865765488,3,3,2,4.0,105
132,133,Decrease Desire,OatBran_4_1bowl.jpg,-1.0,1.0793750352804636,1,2,4,4.0,105
133,134,Decrease Desire,EnglishCucumber_5_0.5cuc.JPG,2.0,1.2250295507428746,5,5,6,6.0,105
134,135,Decrease Desire,AppleChips_2_3chips.jpg,1.0,2.87396700694444,5,3,3,6.0,105
135,136,Decrease Desire,Smartfood_2_8Chips.jpg,1.0,1.6771821506099511,4,6,2,5.0,105
136,137,Decrease Desire,Strawberries_3_0.5bag.jpg,-1.0,1.3497801584371698,4,1,4,6.0,105
137,138,Decrease Desire,Avocado_5_1avacado.jpg,-1.0,1.1503270396278822,3,3,4,6.0,105
138,139,Decrease Desire,PCChipCookie_5_4cookie.jpg,-1.0,2.4357772401399416,1,4,2,5.0,105
139,140,Decrease Desire,FrozenCorn_4_2cups.jpg,-1.0,1.4146552299262112,3,2,4,2.0,105
140,141,Decrease Desire,MangoChunks_5_1cup.jpg,-1.0,3.1573681848694832,3,2,4,4.0,105
141,142,Decrease Desire,WaterChestnuts_3_8pc.jpg,-1.0,0.8351633031379606,2,1,2,2.0,105
142,143,Decrease Desire,FruitCrisps_3_2bars.jpg,-2.0,1.1633878123784598,2,1,1,1.0,105
143,144,Decrease Desire,Nutella_4_3spoons.jpg,-1.0,2.2233243602468065,4,4,2,5.0,105
144,145,Decrease Desire,VanillaGreekYogurt_2_1spoon.jpg,-2.0,1.0455092848915228,2,2,4,5.0,105
145,146,Decrease Desire,AllBranCereal_6_1cup.jpg,-2.0,0.7421838070476952,2,2,2,1.0,105
146,147,Decrease Desire,Butternut_7_2cups.jpg,-1.0,1.2171194169341106,2,2,4,2.0,105
147,148,Decrease Desire,KashiBars_4_3bars.jpg,-1.0,0.9436674168637182,1,1,3,2.0,105
148,149,Decrease Desire,CheeseNips_2_5nips.jpg,-1.0,3.150233526423108,2,2,2,4.0,105
149,150,Decrease Desire,RitzCrackers_5_15Crackers.jpg,-1.0,0.9637097486947824,2,4,2,4.0,105
150,151,Focus on Healthiness,RiceKrispiesCereal_3_2tbsp.jpg,-1.0,1.4512195403904116,3,2,1,4.0,105
151,152,Focus on Healthiness,BabyFoodCarrots_3_2Tbsp.jpg,1.0,1.3475763258775257,2,2,4,2.0,105
152,153,Focus on Healthiness,FrozenBlueberries_3_1cup.jpg,1.0,1.1110355276059636,3,4,4,4.0,105
153,154,Focus on Healthiness,Aero_3_1bar.jpg,-1.0,1.0606746749699596,6,6,1,6.0,105
154,155,Focus on Healthiness,PopTartStrawberry_2_0.5tart.jpg,-1.0,1.2517985611511904,1,1,1,1.0,105
155,156,Focus on Healthiness,Onion_4_0.25.jpg,1.0,0.9445546519118578,3,4,5,4.0,105
156,157,Focus on Healthiness,NatureValleyChocolate_1_0.25bar.jpg,-1.0,1.0389667817144073,1,2,3,2.0,105
157,158,Focus on Healthiness,Tuna_2_1T.jpg,1.0,1.165418018284072,1,2,3,2.0,105
158,159,Focus on Healthiness,TofuDessert_4_1pck.jpg,-1.0,2.3077756230459268,2,2,3,1.0,105
159,160,Focus on Healthiness,LaysClassic_3_8Chips.jpg,-1.0,1.0101424764925468,6,6,1,5.0,105
160,161,Focus on Healthiness,SkittlesSour_3_8pieces.jpg,-1.0,0.8106431712840276,6,6,2,6.0,105
161,162,Focus on Healthiness,Tempeh_4_.5pack.jpg,-2.0,0.8601869237745632,2,1,2,1.0,105
162,163,Focus on Healthiness,FrozenOkra_2_2pc.jpg,1.0,0.9807473985938486,2,4,4,4.0,105
163,164,Focus on Healthiness,FibreBrownies_3_2bars.jpg,-1.0,1.1443382030520295,2,3,1,2.0,105
164,165,Focus on Healthiness,Tuna_4_1can.jpg,1.0,2.050934761424287,1,1,3,1.0,105
165,166,Respond Naturally,Broccoli_1_1pc.jpg,2.0,0.6962311897332256,6,6,6,6.0,105
166,167,Respond Naturally,SlicedTurkey_2_0.5slice.jpg,-1.0,1.1266171654897337,3,2,2,3.0,105
167,168,Respond Naturally,Mackerel_1_1fish.jpg,-1.0,0.8342196180446991,1,1,4,1.0,105
168,169,Respond Naturally,IcebergLettuce_4_8leaves.jpg,-1.0,0.9785133453033268,2,2,6,3.0,105
169,170,Respond Naturally,DriedApricots_5_0.75cup.jpg,-2.0,1.5915557005137089,2,2,3,2.0,105
170,171,Respond Naturally,AlmondMilk_4_1glass.jpg,-2.0,1.7798177404820308,1,1,1,2.0,105
171,172,Respond Naturally,SlicedTurkey_5_4slices.jpg,-2.0,0.9390259687306752,1,1,2,2.0,105
172,173,Respond Naturally,RedPepper_2_2pc.jpg,2.0,1.2752290360785992,5,4,6,5.0,105
173,174,Respond Naturally,RomaineLettuce_4_1head.jpg,-1.0,1.5903234929692192,2,2,4,4.0,105
174,175,Respond Naturally,Prunes_2_3.jpg,-1.0,0.9345025525117308,3,2,3,1.0,105
175,176,Respond Naturally,ChipsAhoy_2_.5cookie.jpg,-1.0,2.202135921445006,4,4,2,4.0,105
176,177,Respond Naturally,RaisinBran_3_2tbsp.jpg,-1.0,1.0618250939915015,3,2,3,2.0,105
177,178,Respond Naturally,CoffeeCrisp_3_1Bars.jpg,2.0,0.7736561325555158,6,6,1,6.0,105
178,179,Respond Naturally,SlimStyles_6_2c.jpg,-1.0,1.0246153556663558,1,2,3,4.0,105
179,180,Respond Naturally,LuckyCharms_6_1cup.jpg,-1.0,0.8246290975457669,2,1,2,2.0,105
180,181,Focus on Healthiness,Skittles_6_0.75pack.jpg,-1.0,0.9835895728210744,6,6,2,6.0,105
181,182,Focus on Healthiness,VegetableThins_5_25Chips.jpg,-2.0,1.1935709100944225,3,3,3,4.0,105
182,183,Focus on Healthiness,FibreBrownies_3_2bars.jpg,-2.0,1.17441780901936,2,3,1,2.0,105
183,184,Focus on Healthiness,Shreddies_2_1T.jpg,-2.0,0.6353800370980025,2,1,3,3.0,105
184,185,Focus on Healthiness,PureFit_2_0.5Bars.jpg,-2.0,1.6575363945985373,1,1,2,2.0,105
185,186,Focus on Healthiness,RiceKrispiesCereal_3_2tbsp.jpg,-2.0,1.0210387606530276,3,2,1,4.0,105
186,187,Focus on Healthiness,BabyFoodCarrots_5_1jar.jpg,1.0,1.0716142945202591,1,2,4,2.0,105
187,188,Focus on Healthiness,Aero_3_1bar.jpg,-1.0,1.3983594134442685,6,6,1,6.0,105
188,189,Focus on Healthiness,BabyFoodCarrots_3_2Tbsp.jpg,1.0,1.7817381824115728,2,2,4,2.0,105
189,190,Focus on Healthiness,OikosYogurt_6_1c.jpg,1.0,0.7886382025390049,3,2,3,6.0,105
190,191,Focus on Healthiness,Skittles_3_14pieces.jpg,-1.0,0.6789195575456688,6,6,1,6.0,105
191,192,Focus on Healthiness,DriedHerring_1_1fish.jpg,-2.0,0.9040697061118408,1,1,3,1.0,105
192,193,Focus on Healthiness,PopTartStrawberry_2_0.5tart.jpg,-2.0,0.9190928306734351,1,1,1,1.0,105
193,194,Focus on Healthiness,Caramilk_5_2bars.jpg,-1.0,0.742747167091693,6,6,1,6.0,105
194,195,Focus on Healthiness,Fritos_5_1c.jpg,-1.0,1.0703914953155618,3,3,2,3.0,105
195,196,Respond Naturally,CoffeeCrisp_3_1Bars.jpg,2.0,0.50161680911242,6,6,1,6.0,105
196,197,Respond Naturally,FrozenBroccoli_2_3chunks.jpg,2.0,0.7697017784048512,6,6,6,6.0,105
197,198,Respond Naturally,ClifBar_2_0.5bar.jpg,-1.0,0.6933978536435461,3,2,2,5.0,105
198,199,Respond Naturally,Prunes_2_3.jpg,-1.0,0.8383294744880914,3,2,3,1.0,105
199,200,Respond Naturally,GreenPepper_6_1pepper.jpg,1.0,1.0229512197483928,4,4,5,6.0,105
200,201,Respond Naturally,Almonds_2_10.jpg,1.0,0.9527553038806218,4,4,4,6.0,105
201,202,Respond Naturally,ChipsAhoy_4_2cookies.jpg,1.0,1.0481333566731337,3,3,2,5.0,105
202,203,Respond Naturally,RomaineLettuce_4_1head.jpg,-1.0,1.02379768532046,2,2,4,4.0,105
203,204,Respond Naturally,WelchsFruitSnacks_3_4bags.jpg,1.0,1.2046912838286516,6,5,3,6.0,105
204,205,Respond Naturally,RaisinBran_3_2tbsp.jpg,-1.0,0.7507545204225607,3,2,3,2.0,105
205,206,Respond Naturally,Cheetos_3_10pc.jpg,1.0,0.8526437152568178,4,5,1,5.0,105
206,207,Respond Naturally,Broccoli_1_1pc.jpg,2.0,0.8036995306665631,6,6,6,6.0,105
207,208,Respond Naturally,Broccoli_4_1.5c.jpg,2.0,0.6686408026625941,6,6,6,6.0,105
208,209,Respond Naturally,LuckyCharms_6_1cup.jpg,-1.0,0.6569861492116615,2,1,2,2.0,105
209,210,Respond Naturally,Beets_5_1can.jpg,-1.0,0.9135128292700756,2,2,4,2.0,105
210,211,Decrease Desire,RitzCrackers_2_3Crackers.jpg,-1.0,1.1401303939010177,3,3,2,2.0,105
211,212,Decrease Desire,AppleChips_2_3chips.jpg,1.0,1.1166964977592215,5,3,3,6.0,105
212,213,Decrease Desire,OatmealSquares_3_2tbsp.jpg,-1.0,1.9087998207278358,2,1,2,2.0,105
213,214,Decrease Desire,FrozenCorn_2_0.5cup.jpg,-1.0,1.0714044600090349,2,2,4,3.0,105
214,215,Decrease Desire,FrootLoops_6_2Cups.jpg,-1.0,1.215145661072711,2,1,1,5.0,105
215,216,Decrease Desire,KashiBars_4_3bars.jpg,-1.0,1.7632353972576311,1,1,3,2.0,105
216,217,Decrease Desire,EnglishCucumber_2_2pc.jpg,2.0,0.8967500169628693,5,4,6,5.0,105
217,218,Decrease Desire,BBQCrisps_6_1cup.jpg,-1.0,0.7257135086101698,3,2,1,4.0,105
218,219,Decrease Desire,Bananas_2_0.5.jpg,2.0,1.1308460721311349,4,5,2,5.0,105
219,220,Decrease Desire,AppleChips_5_1c..jpg,1.0,2.725748290960837,6,6,2,6.0,105
220,221,Decrease Desire,CornFlakes_3_2tbsps.jpg,-1.0,0.7298839694985872,2,1,3,3.0,105
221,222,Decrease Desire,OatBran_2_2T.jpg,-1.0,1.3627086442129441,2,2,3,4.0,105
222,223,Decrease Desire,RitzCrackers_5_15Crackers.jpg,-2.0,2.0056940418971863,2,4,2,4.0,105
223,224,Decrease Desire,CheeseNips_2_5nips.jpg,-2.0,1.0974570110101922,2,2,2,4.0,105
224,225,Decrease Desire,SevenGrain_3_5.jpg,-2.0,1.1771958354693195,2,2,2,2.0,105
225,226,Focus on Healthiness,Tempeh_4_.5pack.jpg,-2.0,1.1585311128128524,2,1,2,1.0,105
226,227,Focus on Healthiness,Spinach_2_.5c.jpg,2.0,1.2521911455532972,5,2,6,3.0,105
227,228,Focus on Healthiness,RufflesSourCreamOnion_3_5chips.jpg,-1.0,1.3536541140392728,6,6,1,6.0,105
228,229,Focus on Healthiness,LaysClassic_4_16Chips.jpg,-1.0,0.7611302097266162,5,6,1,5.0,105
229,230,Focus on Healthiness,Shreddies_5_2c.jpg,-2.0,0.7145979815968531,2,3,3,2.0,105
230,231,Focus on Healthiness,RiceKrispiesCereal_7_2cups.jpg,-1.0,0.9044967877644012,3,3,3,3.0,105
231,232,Focus on Healthiness,YorkPeppermintPatties_4_12.jpg,-1.0,0.9060907887787836,2,5,2,4.0,105
232,233,Focus on Healthiness,LaysClassic_3_8Chips.jpg,-1.0,2.2010819021725183,6,6,1,5.0,105
233,234,Focus on Healthiness,Spinach_4_.5box.jpg,2.0,0.6734632900797806,4,3,6,4.0,105
234,235,Focus on Healthiness,GreenApple_4_1.jpg,2.0,2.074660316131485,5,6,6,6.0,105
235,236,Focus on Healthiness,SkittlesSour_6_0.5pack.jpg,-1.0,0.8486788123591396,6,6,1,5.0,105
236,237,Focus on Healthiness,BrusselsSprouts_4_1Box.jpg,1.0,0.822822125908715,4,4,4,5.0,105
237,238,Focus on Healthiness,SkittlesSour_3_8pieces.jpg,-1.0,1.037721174411672,6,6,2,6.0,105
238,239,Focus on Healthiness,FrozenOkra_5_0.5box.jpg,1.0,0.7221146757001407,4,4,4,4.0,105
239,240,Focus on Healthiness,DriedHerring_3_4fish.jpg,-1.0,1.2033858052654978,1,1,1,1.0,105
240,241,Respond Naturally,RedPepper_5_1pepper.jpg,1.0,1.3557401997868508,5,3,6,4.0,105
241,242,Respond Naturally,BabyFoodSweetPotatos_5_1jar.jpg,-1.0,0.6877420153123239,1,2,2,1.0,105
242,243,Respond Naturally,AllBranBar_1_.25bar.jpg,-1.0,0.8129134324308325,1,2,2,2.0,105
243,244,Respond Naturally,Beets_2_5pc.jpg,-1.0,0.6230904631929661,2,2,1,2.0,105
244,245,Respond Naturally,Asparagus_3_7.jpg,2.0,0.7282360843510105,6,6,6,6.0,105
245,246,Respond Naturally,ClifBar_4_2bars.jpg,-1.0,0.8649703523224161,3,2,2,4.0,105
246,247,Respond Naturally,JuniorMints_2_9pc.jpg,-1.0,0.6531407037327881,2,2,2,3.0,105
247,248,Respond Naturally,Mackerel_1_1fish.jpg,-2.0,0.772027634292499,1,1,4,1.0,105
248,249,Respond Naturally,Mackerel_3_4fish.jpg,-2.0,0.5863839640824153,1,1,3,1.0,105
249,250,Respond Naturally,HoneyNutCheerios_5_2cup.jpg,-1.0,1.0490134641913755,3,2,2,2.0,105
250,251,Respond Naturally,Reese_1_1Cup.jpg,1.0,0.8038557661438972,4,2,1,3.0,105
251,252,Respond Naturally,IcebergLettuce_4_8leaves.jpg,-1.0,0.8783002606396622,2,2,6,3.0,105
252,253,Respond Naturally,ProMax_4_1bar.jpg,-1.0,0.8593276286483159,2,2,2,2.0,105
253,254,Respond Naturally,SlimStyles_6_2c.jpg,-1.0,0.7007834011774321,1,2,3,4.0,105
254,255,Respond Naturally,Snickers_2_1Bar.jpg,2.0,0.8736120559051415,6,6,1,5.0,105
255,256,Decrease Desire,CannedArtichoke_5_1can.jpg,-1.0,0.7782773384997199,2,1,3,2.0,105
256,257,Decrease Desire,Smartfood_4_100Chips.jpg,-1.0,1.37197015788297,6,6,2,5.0,105
257,258,Decrease Desire,KashiBars_1_0.5bar.jpg,-1.0,0.8441918890976012,1,3,2,2.0,105
258,259,Decrease Desire,Butternut_3_0.3cup.jpg,-1.0,0.6585020324873767,2,1,4,2.0,105
259,260,Decrease Desire,FruitCrisps_3_2bars.jpg,-1.0,0.8707513500967252,2,1,1,1.0,105
260,261,Decrease Desire,CannedArtichoke_2_2.jpg,-1.0,0.5979944268410691,1,1,4,1.0,105
261,262,Decrease Desire,FrozenPeaches_5_1.5Cups.jpg,-1.0,1.4502757784266578,4,4,5,6.0,105
262,263,Decrease Desire,ClamJuice_1_1T.jpg,-1.0,0.7052170105089317,1,1,2,1.0,105
263,264,Decrease Desire,FruitCrisps_1_0.5bar.jpg,-1.0,1.59779343046921,2,1,1,1.0,105
264,265,Decrease Desire,VanillaGreekYogurt_4_1cup.jpg,-1.0,0.843095674842516,2,2,2,4.0,105
265,266,Decrease Desire,Nutella_1_0.5spoon.jpg,1.0,1.6283106668352048,2,4,2,6.0,105
266,267,Decrease Desire,SpeltCakes_5_4.jpg,-1.0,1.372681485469002,3,3,2,4.0,105
267,268,Decrease Desire,OatmealSquares_7_2Cups.jpg,-1.0,0.6909117708601116,2,1,2,2.0,105
268,269,Decrease Desire,MangoChunks_2_3.jpg,1.0,1.579157217935972,3,6,2,5.0,105
269,270,Decrease Desire,SpeltCakes_2_0.5.jpg,-1.0,0.9373136507047092,1,2,2,4.0,105
270,271,Decrease Desire,Bananas_3_1.jpg,-1.0,1.0966781144315974,4,5,5,5.0,105
271,272,Decrease Desire,Triscuit_2_2crackers.jpg,-2.0,0.8684560000410784,2,2,3,3.0,105
272,273,Decrease Desire,GoldfishBits_3_0.25Cups.jpg,-2.0,0.9041387006109288,3,1,3,4.0,105
273,274,Decrease Desire,CheeseNips_5_1c.jpg,-2.0,1.2846476405311478,3,4,2,4.0,105
274,275,Decrease Desire,WaterChestnuts_5_0.5can.jpg,-2.0,0.5908383858022717,2,1,4,2.0,105
275,276,Decrease Desire,MangoChunks_5_1cup.jpg,-2.0,1.0897772389998863,3,2,4,4.0,105
276,277,Decrease Desire,Nutella_4_3spoons.jpg,-2.0,1.0201090455202575,4,4,2,5.0,105
277,278,Decrease Desire,Triscuit_5_30crackers.jpg,-2.0,0.6705965971450496,2,2,2,3.0,105
278,279,Decrease Desire,Avocado_5_1avacado.jpg,-2.0,1.3402338286305169,3,3,4,6.0,105
279,280,Decrease Desire,CornFlakes_6_2cups.jpg,-2.0,0.6849380446510622,3,2,2,3.0,105
280,281,Decrease Desire,FrootLoops_2_2T.jpg,-2.0,0.8152749259734264,3,2,2,4.0,105
281,282,Decrease Desire,VanillaGreekYogurt_2_1spoon.jpg,-2.0,1.814166586679676,2,2,4,5.0,105
282,283,Decrease Desire,Strawberries_3_0.5bag.jpg,-1.0,1.8375170989465917,4,1,4,6.0,105
283,284,Decrease Desire,FrozenPeaches_2_3Slices.jpg,1.0,1.284381355975711,4,5,4,6.0,105
284,285,Decrease Desire,WaterChestnuts_3_8pc.jpg,-2.0,0.7806727590905211,2,1,2,2.0,105
285,286,Focus on Healthiness,Aero_1_1pc.jpg,-1.0,1.9510914530646917,6,6,3,6.0,105
286,287,Focus on Healthiness,FrozenBlueberries_1_1tbsp.jpg,-1.0,0.8366444040611896,4,3,4,5.0,105
287,288,Focus on Healthiness,SkittlesSour_3_8pieces.jpg,-1.0,0.6076525163316546,6,6,2,6.0,105
288,289,Focus on Healthiness,TofuDessert_4_1pck.jpg,-2.0,1.4228735581709768,2,2,3,1.0,105
289,290,Focus on Healthiness,Onion_2_1ring.jpg,1.0,0.8043441445624921,3,4,6,3.0,105
290,291,Focus on Healthiness,VegetableThins_2_5Chips.jpg,-1.0,0.7153395299137628,3,1,2,1.0,105
291,292,Focus on Healthiness,SkittlesSour_6_0.5pack.jpg,-2.0,0.6457776791967262,6,6,1,5.0,105
292,293,Focus on Healthiness,PopTartStrawberry_5_3tarts.jpg,-2.0,0.8941703621067063,1,1,1,1.0,105
293,294,Focus on Healthiness,FrozenBlueberries_3_1cup.jpg,1.0,1.113931015765047,3,4,4,4.0,105
294,295,Focus on Healthiness,Raspberries_5_.5bag.jpg,1.0,0.9939923467427434,4,3,4,5.0,105
295,296,Focus on Healthiness,Onion_4_0.25.jpg,2.0,1.2467593967940047,3,4,5,4.0,105
296,297,Focus on Healthiness,BrusselsSprouts_2_3.jpg,1.0,0.8924201844829441,4,4,4,5.0,105
297,298,Focus on Healthiness,PureFit_4_2Bars.jpg,-1.0,0.7638304035381225,1,2,2,2.0,105
298,299,Focus on Healthiness,Fritos_2_5chips.jpg,-2.0,1.3957470308132542,3,2,2,3.0,105
299,300,Focus on Healthiness,Tempeh_2_1Tbsp.jpg,-2.0,0.6458669158828343,1,2,2,3.0,105
300,301,Respond Naturally,AllBranBar_3_1bar.jpg,-2.0,0.7706183788804992,2,2,2,2.0,105
301,302,Respond Naturally,Snickers_3_2Bars.jpg,2.0,0.6375408193689509,6,6,1,6.0,105
302,303,Respond Naturally,GreenBeans_2_9beans.jpg,1.0,0.5725853493322575,4,4,4,5.0,105
303,304,Respond Naturally,FrozenPeas_6_0.5bag.jpg,1.0,0.5485581575167089,4,2,6,5.0,105
304,305,Respond Naturally,RomaineLettuce_2_3leaves.jpg,-1.0,0.711068998490191,2,4,5,4.0,105
305,306,Respond Naturally,ChipsAhoy_2_.5cookie.jpg,1.0,0.9395032282009196,4,4,2,4.0,105
306,307,Respond Naturally,AlmondMilk_4_1glass.jpg,-1.0,1.1746330604537434,1,1,1,2.0,105
307,308,Respond Naturally,GreenPepper_2_2pc.jpg,1.0,1.098664699848996,4,5,6,4.0,105
308,309,Respond Naturally,FrozenBroccoli_6_0.5bag.jpg,2.0,0.6434424149674669,5,6,6,6.0,105
309,310,Respond Naturally,WelchsFruitSnacks_1_1bag.jpg,2.0,0.633243203328675,6,6,3,5.0,105
310,311,Respond Naturally,Reese_4_5Cup.jpg,2.0,0.821636389865489,1,4,2,4.0,105
311,312,Respond Naturally,RedPepper_2_2pc.jpg,1.0,0.5408678411431538,5,4,6,5.0,105
312,313,Respond Naturally,SlicedTurkey_2_0.5slice.jpg,-1.0,0.7793798249813335,3,2,2,3.0,105
313,314,Respond Naturally,Asparagus_6_FullPack.jpg,1.0,1.8680656964479567,5,3,5,6.0,105
314,315,Respond Naturally,SlimStyles_2_2Tbsp.jpg,-1.0,0.5631986762182349,1,1,2,3.0,105
315,316,Focus on Healthiness,RufflesSourCreamOnion_5_20chips.jpg,-1.0,0.7492699982831255,6,6,2,6.0,105
316,317,Focus on Healthiness,FibreBrownies_2_1bar.jpg,-1.0,0.7976337167565362,2,2,2,2.0,105
317,318,Focus on Healthiness,YorkPeppermintPatties_2_3.jpg,-1.0,0.5815235582003879,2,4,2,4.0,105
318,319,Focus on Healthiness,Celery_2_1stalk.jpg,2.0,0.6853882195027836,4,2,6,4.0,105
319,320,Focus on Healthiness,NatureValleyChocolate_4_2bars.jpg,-1.0,0.8982559216956361,2,2,2,,105
320,321,Focus on Healthiness,Tuna_2_1T.jpg,-2.0,0.7495496825968075,1,2,3,2.0,105
321,322,Focus on Healthiness,Raspberries_4_.5c.jpg,1.0,0.6786113631087574,3,3,4,4.0,105
322,323,Focus on Healthiness,HoneyNutCheerios_5_2cup.jpg,-2.0,1.1560627063063291,3,2,2,2.0,105
323,324,Focus on Healthiness,GreenApple_2_1slice.jpg,1.0,0.8484498760662973,4,5,6,5.0,105
324,325,Focus on Healthiness,NatureValleyChocolate_1_0.25bar.jpg,-2.0,0.7541232766343455,1,2,3,2.0,105
325,326,Focus on Healthiness,FrozenOkra_2_2pc.jpg,1.0,0.6611007302581129,2,4,4,4.0,105
326,327,Focus on Healthiness,Celery_4_0.5bunch.jpg,1.0,0.7116414817737677,4,3,6,4.0,105
327,328,Focus on Healthiness,Tuna_4_1can.jpg,-1.0,0.9083219910553452,1,1,3,1.0,105
328,329,Focus on Healthiness,OikosYogurt_3_2spoonfuls.jpg,-1.0,0.8115845755673945,3,3,3,5.0,105
329,330,Focus on Healthiness,HoneyNutCheerios_2_2tbsp.jpg,-1.0,0.7911827310754234,2,2,2,4.0,105
330,331,Respond Naturally,LuckyCharms_3_2tbsps.jpg,-2.0,0.7538703918371539,3,2,2,2.0,105
331,332,Respond Naturally,GreenBeans_4_.5pck.jpg,1.0,0.7501974326060008,2,4,6,6.0,105
332,333,Respond Naturally,ProMax_2_0.25bar.jpg,-2.0,0.7396589908858004,2,1,2,2.0,105
333,334,Respond Naturally,Almonds_4_40.jpg,-2.0,0.5942450604788974,6,3,3,5.0,105
334,335,Respond Naturally,JuniorMints_4_1box.jpg,-2.0,0.7394428437592069,3,4,2,2.0,105
335,336,Respond Naturally,Cheetos_6_2c.jpg,1.0,0.7310888073243405,5,3,1,5.0,105
336,337,Respond Naturally,HoneyNutCheerios_2_2tbsp.jpg,-1.0,0.894271917014521,2,2,2,4.0,105
337,338,Respond Naturally,SlicedTurkey_5_4slices.jpg,-1.0,0.7743480732578973,1,1,2,2.0,105
338,339,Respond Naturally,AlmondMilk_2_0.25glass.jpg,-1.0,1.2722106692863235,1,1,4,3.0,105
339,340,Respond Naturally,RaisinBran_7_2cup.jpg,-1.0,0.6031821289425352,1,2,3,2.0,105
340,341,Respond Naturally,Prunes_5_1c.jpg,-1.0,0.8233113596306794,2,1,3,1.0,105
341,342,Respond Naturally,DriedApricots_2_2.jpg,-1.0,0.7262668901103098,2,2,2,4.0,105
342,343,Respond Naturally,FrozenPeas_2_2tbsp.jpg,1.0,0.9160197244436858,4,3,4,4.0,105
343,344,Respond Naturally,Cheerios_5_2c.jpg,-1.0,0.9576031653077736,2,4,4,6.0,105
344,345,Respond Naturally,DriedApricots_5_0.75cup.jpg,-1.0,1.1566334789822577,2,2,3,2.0,105
345,346,Decrease Desire,AllBranCereal_6_1cup.jpg,-1.0,1.2799303870942822,2,2,2,1.0,105
346,347,Decrease Desire,Doritos_5_20chips.jpg,-1.0,1.1657102470517202,6,6,1,6.0,105
347,348,Decrease Desire,SevenGrain_1_1.jpg,-1.0,0.5607966982997823,1,2,4,2.0,105
348,349,Decrease Desire,PCChipCookie_5_4cookie.jpg,-1.0,0.8252608818866065,1,4,2,5.0,105
349,350,Decrease Desire,Doritos_2_3chips.jpg,1.0,1.1368602827178622,6,6,1,6.0,105
350,351,Decrease Desire,PCChipCookie_2_0.5cookie.jpg,1.0,0.8616697353063499,4,2,2,6.0,105
351,352,Decrease Desire,Butternut_7_2cups.jpg,-1.0,0.8307895650668797,2,2,4,2.0,105
352,353,Decrease Desire,AllBranCereal_2_1tbsp.jpg,-1.0,0.6357726215001094,2,2,2,2.0,105
353,354,Decrease Desire,Avocado_2_2pc.jpg,1.0,0.8463595138000528,6,6,4,6.0,105
354,355,Decrease Desire,OatBran_4_1bowl.jpg,-1.0,1.486718558893699,1,2,4,4.0,105
355,356,Decrease Desire,Strawberries_2_0.5c.jpg,1.0,0.8811370179428195,4,4,5,5.0,105
356,357,Decrease Desire,GoldfishBits_5_0.75Cups.jpg,-1.0,1.7002049307693596,3,2,3,2.0,105
357,358,Decrease Desire,EnglishCucumber_5_0.5cuc.JPG,-2.0,1.2053413146477396,5,5,6,6.0,105
358,359,Decrease Desire,FrozenCorn_4_2cups.jpg,-2.0,0.7149258480194476,3,2,4,2.0,105
359,360,Decrease Desire,Smartfood_2_8Chips.jpg,-2.0,1.1807749963936658,4,6,2,5.0,105
360,361,Respond Naturally,DriedApricots_5_0.75cup.jpg,-1.0,0.9696184718231962,2,2,3,2.0,105
361,362,Respond Naturally,WelchsFruitSnacks_1_1bag.jpg,2.0,0.6819527496027149,6,6,3,5.0,105
362,363,Respond Naturally,GreenPepper_6_1pepper.jpg,1.0,0.5347524152348342,4,4,5,6.0,105
363,364,Respond Naturally,AllBranBar_1_.25bar.jpg,-1.0,0.6546523104889275,1,2,2,2.0,105
364,365,Respond Naturally,JuniorMints_4_1box.jpg,-2.0,0.6684720227303842,3,4,2,2.0,105
365,366,Respond Naturally,AlmondMilk_2_0.25glass.jpg,-2.0,0.7427699751906403,1,1,4,3.0,105
366,367,Respond Naturally,ChipsAhoy_2_.5cookie.jpg,-2.0,0.5950199656399491,4,4,2,4.0,105
367,368,Respond Naturally,Cheetos_6_2c.jpg,1.0,1.0132931302568975,5,3,1,5.0,105
368,369,Respond Naturally,ClifBar_4_2bars.jpg,-2.0,1.1092063180713012,3,2,2,4.0,105
369,370,Respond Naturally,RedPepper_5_1pepper.jpg,1.0,0.860837524796807,5,3,6,4.0,105
370,371,Respond Naturally,GreenPepper_2_2pc.jpg,1.0,0.6381423829789128,4,5,6,4.0,105
371,372,Respond Naturally,RomaineLettuce_4_1head.jpg,-1.0,0.7078120019641574,2,2,4,4.0,105
372,373,Respond Naturally,HoneyNutCheerios_2_2tbsp.jpg,-2.0,0.5868253007956811,2,2,2,4.0,105
373,374,Respond Naturally,RedPepper_2_2pc.jpg,1.0,0.6879227694962537,5,4,6,5.0,105
374,375,Respond Naturally,LuckyCharms_3_2tbsps.jpg,-2.0,0.8151015844214271,3,2,2,2.0,105
375,376,Decrease Desire,OatBran_4_1bowl.jpg,-2.0,1.1938058335135793,1,2,4,4.0,105
376,377,Decrease Desire,Bananas_2_0.5.jpg,-1.0,0.9739366151525246,4,5,2,5.0,105
377,378,Decrease Desire,FrozenPeaches_5_1.5Cups.jpg,-2.0,0.7067497147563699,4,4,5,6.0,105
378,379,Decrease Desire,AppleChips_5_1c..jpg,1.0,1.004568299232233,6,6,2,6.0,105
379,380,Decrease Desire,Avocado_2_2pc.jpg,1.0,0.8993900544137432,6,6,4,6.0,105
380,381,Decrease Desire,Doritos_5_20chips.jpg,-1.0,0.9352361179926448,6,6,1,6.0,105
381,382,Decrease Desire,Butternut_3_0.3cup.jpg,-2.0,0.9662559878388493,2,1,4,2.0,105
382,383,Decrease Desire,EnglishCucumber_5_0.5cuc.JPG,-1.0,1.4874452819458384,5,5,6,6.0,105
383,384,Decrease Desire,VanillaGreekYogurt_4_1cup.jpg,-2.0,1.168593190755928,2,2,2,4.0,105
384,385,Decrease Desire,SpeltCakes_5_4.jpg,-2.0,0.7463377320646032,3,3,2,4.0,105
385,386,Decrease Desire,SevenGrain_3_5.jpg,-2.0,0.53271650730494,2,2,2,2.0,105
386,387,Decrease Desire,Nutella_1_0.5spoon.jpg,-2.0,0.9424143969281432,2,4,2,6.0,105
387,388,Decrease Desire,Smartfood_4_100Chips.jpg,-2.0,1.6190981905765511,6,6,2,5.0,105
388,389,Decrease Desire,BBQCrisps_6_1cup.jpg,-2.0,0.6631771225647753,3,2,1,4.0,105
389,390,Decrease Desire,RitzCrackers_5_15Crackers.jpg,-2.0,1.2024863108636057,2,4,2,4.0,105
390,391,Focus on Healthiness,FrozenOkra_2_2pc.jpg,1.0,0.7485903169354059,2,4,4,4.0,105
391,392,Focus on Healthiness,Shreddies_2_1T.jpg,-2.0,0.8415461496224452,2,1,3,3.0,105
392,393,Focus on Healthiness,GreenApple_4_1.jpg,2.0,0.7507827454455764,5,6,6,6.0,105
393,394,Focus on Healthiness,GreenApple_2_1slice.jpg,2.0,0.7317810331269357,4,5,6,5.0,105
394,395,Focus on Healthiness,Onion_2_1ring.jpg,1.0,0.9061272817370992,3,4,6,3.0,105
395,396,Focus on Healthiness,Skittles_3_14pieces.jpg,-1.0,0.7686414869058353,6,6,1,6.0,105
396,397,Focus on Healthiness,Celery_4_0.5bunch.jpg,1.0,1.1648774663399308,4,3,6,4.0,105
397,398,Focus on Healthiness,LaysClassic_3_8Chips.jpg,-2.0,1.0132674711467191,6,6,1,5.0,105
398,399,Focus on Healthiness,RufflesSourCreamOnion_3_5chips.jpg,-1.0,0.7087465638178401,6,6,1,6.0,105
399,400,Focus on Healthiness,Fritos_5_1c.jpg,-2.0,0.6249117254237717,3,3,2,3.0,105
400,401,Focus on Healthiness,SkittlesSour_3_8pieces.jpg,-2.0,0.6962257728100667,6,6,2,6.0,105
401,402,Focus on Healthiness,Aero_3_1bar.jpg,-1.0,0.6900752838328117,6,6,1,6.0,105
402,403,Focus on Healthiness,Tuna_4_1can.jpg,-2.0,0.9158004815926688,1,1,3,1.0,105
403,404,Focus on Healthiness,YorkPeppermintPatties_4_12.jpg,-2.0,0.8240945327279405,2,5,2,4.0,105
404,405,Focus on Healthiness,FrozenBlueberries_1_1tbsp.jpg,1.0,1.036318476327324,4,3,4,5.0,105
405,406,Decrease Desire,Triscuit_5_30crackers.jpg,-2.0,1.0346500638916039,2,2,2,3.0,105
406,407,Decrease Desire,FrozenCorn_2_0.5cup.jpg,-2.0,0.7409952199923282,2,2,4,3.0,105
407,408,Decrease Desire,Nutella_4_3spoons.jpg,-1.0,0.7989785392901467,4,4,2,5.0,105
408,409,Decrease Desire,Bananas_3_1.jpg,-2.0,0.7091491267638048,4,5,5,5.0,105
409,410,Decrease Desire,AllBranCereal_6_1cup.jpg,-2.0,0.7087633847904726,2,2,2,1.0,105
410,411,Decrease Desire,SpeltCakes_2_0.5.jpg,-2.0,0.6305832087919043,1,2,2,4.0,105
411,412,Decrease Desire,Butternut_7_2cups.jpg,-2.0,2.0932643122241643,2,2,4,2.0,105
412,413,Decrease Desire,FrozenCorn_4_2cups.jpg,-2.0,0.6745232964776733,3,2,4,2.0,105
413,414,Decrease Desire,VanillaGreekYogurt_2_1spoon.jpg,-2.0,1.016448345642857,2,2,4,5.0,105
414,415,Decrease Desire,CornFlakes_6_2cups.jpg,-2.0,1.2097390012222604,3,2,2,3.0,105
415,416,Decrease Desire,OatmealSquares_3_2tbsp.jpg,-2.0,1.3358062064262413,2,1,2,2.0,105
416,417,Decrease Desire,OatBran_2_2T.jpg,-2.0,0.7392546769433466,2,2,3,4.0,105
417,418,Decrease Desire,CheeseNips_2_5nips.jpg,-1.0,1.7557529153027644,2,2,2,4.0,105
418,419,Decrease Desire,EnglishCucumber_2_2pc.jpg,1.0,0.8430030169411111,5,4,6,5.0,105
419,420,Decrease Desire,FruitCrisps_1_0.5bar.jpg,-2.0,0.6598286085400105,2,1,1,1.0,105
420,421,Focus on Healthiness,FibreBrownies_3_2bars.jpg,-2.0,0.5519448751065283,2,3,1,2.0,105
421,422,Focus on Healthiness,Raspberries_4_.5c.jpg,1.0,1.1994993052085192,3,3,4,4.0,105
422,423,Focus on Healthiness,DriedHerring_3_4fish.jpg,-2.0,0.7865612400310056,1,1,1,1.0,105
423,424,Focus on Healthiness,HoneyNutCheerios_2_2tbsp.jpg,-2.0,0.8133801431549728,2,2,2,4.0,105
424,425,Focus on Healthiness,PureFit_2_0.5Bars.jpg,-2.0,1.3687533606307625,1,1,2,2.0,105
425,426,Focus on Healthiness,SkittlesSour_6_0.5pack.jpg,-2.0,0.8897901255750185,6,6,1,5.0,105
426,427,Focus on Healthiness,NatureValleyChocolate_4_2bars.jpg,-2.0,0.8366560932126959,2,2,2,,105
427,428,Focus on Healthiness,VegetableThins_5_25Chips.jpg,-2.0,0.8800962806935786,3,3,3,4.0,105
428,429,Focus on Healthiness,PureFit_4_2Bars.jpg,-2.0,0.7244453783096105,1,2,2,2.0,105
429,430,Focus on Healthiness,BabyFoodCarrots_5_1jar.jpg,-2.0,0.8125761576684454,1,2,4,2.0,105
430,431,Focus on Healthiness,Spinach_4_.5box.jpg,2.0,1.4619717715568186,4,3,6,4.0,105
431,432,Focus on Healthiness,NatureValleyChocolate_1_0.25bar.jpg,-2.0,0.7390844715046114,1,2,3,2.0,105
432,433,Focus on Healthiness,Spinach_2_.5c.jpg,1.0,1.2095137712449286,5,2,6,3.0,105
433,434,Focus on Healthiness,HoneyNutCheerios_5_2cup.jpg,-1.0,1.9815568010044444,3,2,2,2.0,105
434,435,Focus on Healthiness,Celery_2_1stalk.jpg,2.0,0.6518315188541237,4,2,6,4.0,105
435,436,Respond Naturally,LuckyCharms_6_1cup.jpg,-2.0,0.5569763417288414,2,1,2,2.0,105
436,437,Respond Naturally,Reese_1_1Cup.jpg,1.0,1.8273002110317973,4,2,1,3.0,105
437,438,Respond Naturally,DriedApricots_2_2.jpg,-2.0,0.7180211921449882,2,2,2,4.0,105
438,439,Respond Naturally,Reese_4_5Cup.jpg,-2.0,1.4311577448042954,1,4,2,4.0,105
439,440,Respond Naturally,Asparagus_3_7.jpg,2.0,0.8799070912091338,6,6,6,6.0,105
440,441,Respond Naturally,ProMax_2_0.25bar.jpg,-2.0,0.5343224825710422,2,1,2,2.0,105
441,442,Respond Naturally,SlicedTurkey_2_0.5slice.jpg,-2.0,0.9335588674184692,3,2,2,3.0,105
442,443,Respond Naturally,ClifBar_2_0.5bar.jpg,-2.0,0.6704261066061008,3,2,2,5.0,105
443,444,Respond Naturally,HoneyNutCheerios_5_2cup.jpg,-2.0,0.630149854911906,3,2,2,2.0,105
444,445,Respond Naturally,Almonds_4_40.jpg,1.0,0.7411443279397645,6,3,3,5.0,105
445,446,Respond Naturally,FrozenPeas_2_2tbsp.jpg,1.0,0.7459246656198957,4,3,4,4.0,105
446,447,Respond Naturally,Mackerel_3_4fish.jpg,-2.0,0.6885782172385007,1,1,3,1.0,105
447,448,Respond Naturally,Beets_5_1can.jpg,-2.0,0.5794956331037611,2,2,4,2.0,105
448,449,Respond Naturally,Snickers_2_1Bar.jpg,2.0,0.7502287937422807,6,6,1,5.0,105
449,450,Respond Naturally,RaisinBran_3_2tbsp.jpg,-2.0,0.6201202785096029,3,2,3,2.0,105
450,451,Decrease Desire,CannedArtichoke_2_2.jpg,-2.0,0.6088000488089165,1,1,4,1.0,105
451,452,Decrease Desire,RitzCrackers_2_3Crackers.jpg,-2.0,0.7897672034359857,3,3,2,2.0,105
452,453,Decrease Desire,KashiBars_4_3bars.jpg,-2.0,0.957408441163352,1,1,3,2.0,105
453,454,Decrease Desire,CornFlakes_3_2tbsps.jpg,-2.0,0.6170229386752908,2,1,3,3.0,105
454,455,Decrease Desire,FruitCrisps_3_2bars.jpg,-2.0,0.6777557742980207,2,1,1,1.0,105
455,456,Decrease Desire,WaterChestnuts_3_8pc.jpg,-2.0,0.5995028974839443,2,1,2,2.0,105
456,457,Decrease Desire,Doritos_2_3chips.jpg,1.0,1.511678031752126,6,6,1,6.0,105
457,458,Decrease Desire,PCChipCookie_2_0.5cookie.jpg,-2.0,0.7203476182357917,4,2,2,6.0,105
458,459,Decrease Desire,GoldfishBits_3_0.25Cups.jpg,-2.0,0.6594588322368509,3,1,3,4.0,105
459,460,Decrease Desire,KashiBars_1_0.5bar.jpg,-2.0,1.6709227529599957,1,3,2,2.0,105
460,461,Decrease Desire,AllBranCereal_2_1tbsp.jpg,-2.0,0.8675736117129418,2,2,2,2.0,105
461,462,Decrease Desire,CheeseNips_5_1c.jpg,-2.0,0.7537121606510482,3,4,2,4.0,105
462,463,Decrease Desire,AppleChips_2_3chips.jpg,1.0,0.8307735993976166,5,3,3,6.0,105
463,464,Decrease Desire,CannedArtichoke_5_1can.jpg,-2.0,0.7322540160785138,2,1,3,2.0,105
464,465,Decrease Desire,MangoChunks_5_1cup.jpg,-2.0,1.0372687187491465,3,2,4,4.0,105
465,466,Respond Naturally,FrozenBroccoli_6_0.5bag.jpg,2.0,0.6564772435049235,5,6,6,6.0,105
466,467,Respond Naturally,Prunes_2_3.jpg,-1.0,0.7352070946872118,3,2,3,1.0,105
467,468,Respond Naturally,Prunes_5_1c.jpg,-1.0,0.5166852647698761,2,1,3,1.0,105
468,469,Respond Naturally,SlicedTurkey_5_4slices.jpg,-1.0,0.8089525209506974,1,1,2,2.0,105
469,470,Respond Naturally,FrozenPeas_6_0.5bag.jpg,-1.0,0.8459652187893879,4,2,6,5.0,105
470,471,Respond Naturally,GreenBeans_2_9beans.jpg,-2.0,0.9997422684818956,4,4,4,5.0,105
471,472,Respond Naturally,Cheerios_5_2c.jpg,-2.0,0.6851230753527489,2,4,4,6.0,105
472,473,Respond Naturally,IcebergLettuce_4_8leaves.jpg,-2.0,0.7217802519489851,2,2,6,3.0,105
473,474,Respond Naturally,Mackerel_1_1fish.jpg,-2.0,0.5601503737962048,1,1,4,1.0,105
474,475,Respond Naturally,JuniorMints_2_9pc.jpg,-2.0,0.6623714264696899,2,2,2,3.0,105
475,476,Respond Naturally,AlmondMilk_4_1glass.jpg,-2.0,0.6522739959727915,1,1,1,2.0,105
476,477,Respond Naturally,AllBranBar_3_1bar.jpg,-2.0,0.5811187144445285,2,2,2,2.0,105
477,478,Respond Naturally,RomaineLettuce_2_3leaves.jpg,-2.0,0.5823363818262806,2,4,5,4.0,105
478,479,Respond Naturally,Beets_2_5pc.jpg,-2.0,0.6940444632482468,2,2,1,2.0,105
479,480,Respond Naturally,Cheetos_3_10pc.jpg,1.0,0.7235883639914391,4,5,1,5.0,105
480,481,Focus on Healthiness,FibreBrownies_2_1bar.jpg,-2.0,0.645544181283185,2,2,2,2.0,105
481,482,Focus on Healthiness,RiceKrispiesCereal_3_2tbsp.jpg,-2.0,0.5264861899813695,3,2,1,4.0,105
482,483,Focus on Healthiness,LaysClassic_4_16Chips.jpg,-1.0,0.7335458097813898,5,6,1,5.0,105
483,484,Focus on Healthiness,OikosYogurt_6_1c.jpg,1.0,0.9154683386523176,3,2,3,6.0,105
484,485,Focus on Healthiness,Shreddies_5_2c.jpg,1.0,1.1216305862608351,2,3,3,2.0,105
485,486,Focus on Healthiness,Onion_4_0.25.jpg,1.0,0.8298230718746709,3,4,5,4.0,105
486,487,Focus on Healthiness,PopTartStrawberry_5_3tarts.jpg,-2.0,0.5998974775948227,1,1,1,1.0,105
487,488,Focus on Healthiness,RiceKrispiesCereal_7_2cups.jpg,-2.0,0.6855658375734492,3,3,3,3.0,105
488,489,Focus on Healthiness,BabyFoodCarrots_3_2Tbsp.jpg,1.0,1.0005214501616138,2,2,4,2.0,105
489,490,Focus on Healthiness,Tuna_2_1T.jpg,1.0,1.3015929176290228,1,2,3,2.0,105
490,491,Focus on Healthiness,Tempeh_4_.5pack.jpg,-2.0,0.7598056293809351,2,1,2,1.0,105
491,492,Focus on Healthiness,PopTartStrawberry_2_0.5tart.jpg,-2.0,0.6393882753827711,1,1,1,1.0,105
492,493,Focus on Healthiness,Tempeh_2_1Tbsp.jpg,-2.0,0.941756668375092,1,2,2,3.0,105
493,494,Focus on Healthiness,FrozenOkra_5_0.5box.jpg,1.0,1.0777203077041122,4,4,4,4.0,105
494,495,Focus on Healthiness,Fritos_2_5chips.jpg,-1.0,0.8451561014799154,3,2,2,3.0,105
495,496,Focus on Healthiness,RufflesSourCreamOnion_5_20chips.jpg,-1.0,1.1590608309106756,6,6,2,6.0,105
496,497,Focus on Healthiness,SkittlesSour_3_8pieces.jpg,-2.0,0.8007641283347766,6,6,2,6.0,105
497,498,Focus on Healthiness,SkittlesSour_6_0.5pack.jpg,-2.0,0.5258233296062826,6,6,1,5.0,105
498,499,Focus on Healthiness,Aero_1_1pc.jpg,-1.0,0.7656798552598048,6,6,3,6.0,105
499,500,Focus on Healthiness,BrusselsSprouts_4_1Box.jpg,1.0,0.9837840118643726,4,4,4,5.0,105
500,501,Focus on Healthiness,VegetableThins_2_5Chips.jpg,-2.0,0.8028810050163884,3,1,2,1.0,105
501,502,Focus on Healthiness,Caramilk_5_2bars.jpg,-1.0,1.1182645545604828,6,6,1,6.0,105
502,503,Focus on Healthiness,TofuDessert_4_1pck.jpg,-2.0,1.1826903065011722,2,2,3,1.0,105
503,504,Focus on Healthiness,DriedHerring_1_1fish.jpg,-2.0,0.8149638805243741,1,1,3,1.0,105
504,505,Focus on Healthiness,Skittles_6_0.75pack.jpg,-1.0,0.8513604745903649,6,6,2,6.0,105
505,506,Focus on Healthiness,YorkPeppermintPatties_2_3.jpg,-1.0,0.6415168412149796,2,4,2,4.0,105
506,507,Focus on Healthiness,OikosYogurt_3_2spoonfuls.jpg,-2.0,0.7155530707395883,3,3,3,5.0,105
507,508,Focus on Healthiness,Raspberries_5_.5bag.jpg,-2.0,0.5563816205494732,4,3,4,5.0,105
508,509,Focus on Healthiness,FrozenBlueberries_3_1cup.jpg,-2.0,0.7322537309773907,3,4,4,4.0,105
509,510,Focus on Healthiness,BrusselsSprouts_2_3.jpg,1.0,1.2875337203486197,4,4,4,5.0,105
510,511,Respond Naturally,Asparagus_6_FullPack.jpg,2.0,1.7315766155397796,5,3,5,6.0,105
511,512,Respond Naturally,SlimStyles_6_2c.jpg,-2.0,0.9344988461953108,1,2,3,4.0,105
512,513,Respond Naturally,ChipsAhoy_4_2cookies.jpg,-2.0,0.5874525235167312,3,3,2,5.0,105
513,514,Respond Naturally,ProMax_4_1bar.jpg,-2.0,0.6745195901612533,2,2,2,2.0,105
514,515,Respond Naturally,Almonds_2_10.jpg,1.0,0.8530927497040466,4,4,4,6.0,105
515,516,Respond Naturally,CoffeeCrisp_3_1Bars.jpg,2.0,0.7292442023235708,6,6,1,6.0,105
516,517,Respond Naturally,Snickers_3_2Bars.jpg,2.0,0.5929045144639531,6,6,1,6.0,105
517,518,Respond Naturally,BabyFoodSweetPotatos_5_1jar.jpg,-2.0,0.7128106819454842,1,2,2,1.0,105
518,519,Respond Naturally,Broccoli_1_1pc.jpg,2.0,0.5442867707897676,6,6,6,6.0,105
519,520,Respond Naturally,FrozenBroccoli_2_3chunks.jpg,2.0,0.5519169351846358,6,6,6,6.0,105
520,521,Respond Naturally,WelchsFruitSnacks_3_4bags.jpg,2.0,0.8038138562624226,6,5,3,6.0,105
521,522,Respond Naturally,GreenBeans_4_.5pck.jpg,1.0,0.8475381223124714,2,4,6,6.0,105
522,523,Respond Naturally,SlimStyles_2_2Tbsp.jpg,-2.0,0.79922230084685,1,1,2,3.0,105
523,524,Respond Naturally,Broccoli_4_1.5c.jpg,2.0,0.8063281640679634,6,6,6,6.0,105
524,525,Respond Naturally,RaisinBran_7_2cup.jpg,-2.0,0.634455168686145,1,2,3,2.0,105
525,526,Decrease Desire,ClamJuice_1_1T.jpg,-2.0,0.6082974153296163,1,1,2,1.0,105
526,527,Decrease Desire,SevenGrain_1_1.jpg,-2.0,0.7053341871160228,1,2,4,2.0,105
527,528,Decrease Desire,PCChipCookie_5_4cookie.jpg,-2.0,1.4384554811567796,1,4,2,5.0,105
528,529,Decrease Desire,OatmealSquares_7_2Cups.jpg,-2.0,0.7738870645580391,2,1,2,2.0,105
529,530,Decrease Desire,WaterChestnuts_5_0.5can.jpg,-2.0,0.5419018989450706,2,1,4,2.0,105
530,531,Decrease Desire,GoldfishBits_5_0.75Cups.jpg,-2.0,0.7178469952896194,3,2,3,2.0,105
531,532,Decrease Desire,MangoChunks_2_3.jpg,-2.0,1.0096694935400592,3,6,2,5.0,105
532,533,Decrease Desire,Strawberries_3_0.5bag.jpg,1.0,2.4067767423530317,4,1,4,6.0,105
533,534,Decrease Desire,FrozenPeaches_2_3Slices.jpg,-2.0,1.0192500354951337,4,5,4,6.0,105
534,535,Decrease Desire,Strawberries_2_0.5c.jpg,1.0,1.1328223939035524,4,4,5,5.0,105
535,536,Decrease Desire,Triscuit_2_2crackers.jpg,-2.0,0.5536480698929154,2,2,3,3.0,105
536,537,Decrease Desire,Smartfood_2_8Chips.jpg,-2.0,1.3229535575792395,4,6,2,5.0,105
537,538,Decrease Desire,FrootLoops_2_2T.jpg,-2.0,0.7545304012000997,3,2,2,4.0,105
538,539,Decrease Desire,FrootLoops_6_2Cups.jpg,-2.0,0.6617901050485671,2,1,1,5.0,105
539,540,Decrease Desire,Avocado_5_1avacado.jpg,1.0,1.1711069283592224,3,3,4,6.0,105
0,1,Focus on Healthiness,RufflesSourCreamOnion_3_5chips.jpg,-1.0,2.8304507681205,1,3,3,4.0,106
1,2,Focus on Healthiness,RiceKrispiesCereal_7_2cups.jpg,1.0,2.2606462564476715,3,3,4,4.0,106
2,3,Focus on Healthiness,Shreddies_2_1T.jpg,-1.0,0.9286590768870157,3,1,2,4.0,106
3,4,Focus on Healthiness,OatmealSquares_7_2Cups.jpg,-1.0,1.5956002011675992,3,3,3,2.0,106
4,5,Focus on Healthiness,SunChips_2_3Chips.jpg,-1.0,0.9014598332041714,2,3,2,4.0,106
5,6,Focus on Healthiness,Caramilk_2_2pc.jpg,-1.0,1.215458825085534,2,5,2,6.0,106
6,7,Focus on Healthiness,YorkPeppermintPatties_2_3.jpg,-1.0,1.2140666749533011,1,1,2,3.0,106
7,8,Focus on Healthiness,CheeseNips_5_1c.jpg,1.0,3.5201426989524407,3,3,3,4.0,106
8,9,Focus on Healthiness,RaisinBran_7_2cup.jpg,-1.0,0.8835323721232271,1,2,4,2.0,106
9,10,Focus on Healthiness,Shreddies_5_2c.jpg,,,3,1,3,3.0,106
10,11,Focus on Healthiness,DriedApricots_5_0.75cup.jpg,1.0,1.927933778928036,1,2,4,2.0,106
11,12,Focus on Healthiness,SlicedTurkey_5_4slices.jpg,1.0,1.9758347733491064,2,2,4,5.0,106
12,13,Focus on Healthiness,Spinach_4_.5box.jpg,1.0,0.9043467800879624,3,3,6,4.0,106
13,14,Focus on Healthiness,Butternut_7_2cups.jpg,-1.0,2.091972570964572,2,2,6,2.0,106
14,15,Focus on Healthiness,Spinach_2_.5c.jpg,1.0,2.2182228831507014,2,3,4,4.0,106
15,16,Decrease Desire,PureFit_2_0.5Bars.jpg,1.0,1.441063268562175,2,3,3,5.0,106
16,17,Decrease Desire,LaysClassic_4_16Chips.jpg,-1.0,1.5286700818010104,1,4,3,4.0,106
17,18,Decrease Desire,Avocado_5_1avacado.jpg,-1.0,2.6171310588324563,1,3,4,4.0,106
18,19,Decrease Desire,NatureValleyChocolate_1_0.25bar.jpg,-1.0,1.9002641179363309,2,2,2,2.0,106
19,20,Decrease Desire,BabyFoodCarrots_3_2Tbsp.jpg,-2.0,2.2624173063391027,1,2,5,3.0,106
20,21,Decrease Desire,Cheetos_3_10pc.jpg,-1.0,3.509667218242612,2,4,2,6.0,106
21,22,Decrease Desire,Mackerel_3_4fish.jpg,-2.0,0.9531173557184048,1,1,6,2.0,106
22,23,Decrease Desire,WaterChestnuts_5_0.5can.jpg,-1.0,3.6987233729546465,2,4,6,4.0,106
23,24,Decrease Desire,BrusselsSprouts_2_3.jpg,-2.0,2.0980649027633262,2,1,5,2.0,106
24,25,Decrease Desire,AllBranBar_1_.25bar.jpg,-1.0,1.8062368211876676,2,3,2,4.0,106
25,26,Decrease Desire,BrusselsSprouts_4_1Box.jpg,-2.0,1.103504067256381,1,1,6,2.0,106
26,27,Decrease Desire,FrozenPeas_2_2tbsp.jpg,-1.0,1.2047230467987902,2,3,4,4.0,106
27,28,Decrease Desire,RitzCrackers_2_3Crackers.jpg,-1.0,1.692118428840331,2,3,2,4.0,106
28,29,Decrease Desire,IceCreamChocolate_1_1tsp.jpg,-1.0,2.184764808451746,2,3,2,5.0,106
29,30,Decrease Desire,IceCreamChocolate_4_3scoops.jpg,-1.0,1.8334220949022888,3,3,1,4.0,106
30,31,Respond Naturally,ClamJuice_1_1T.jpg,-2.0,0.8766277864383483,1,1,5,1.0,106
31,32,Respond Naturally,CoffeeCrisp_3_1Bars.jpg,1.0,2.2162998742132918,3,5,2,6.0,106
32,33,Respond Naturally,GreenBeans_4_.5pck.jpg,-1.0,1.2075697842692534,1,3,6,2.0,106
33,34,Respond Naturally,HoneyNutCheerios_5_2cup.jpg,-1.0,1.1942706593026742,1,2,3,4.0,106
34,35,Respond Naturally,AllBranCereal_2_1tbsp.jpg,-1.0,0.8146558655048466,2,3,5,2.0,106
35,36,Respond Naturally,Pringles_2_3Chips.jpg,-1.0,0.7951657636554046,1,3,3,3.0,106
36,37,Respond Naturally,ClifBar_4_2bars.jpg,1.0,1.2079917343403397,4,4,4,6.0,106
37,38,Respond Naturally,Nutella_1_0.5spoon.jpg,-1.0,1.2311562230220259,3,2,3,5.0,106
38,39,Respond Naturally,RomaineLettuce_2_3leaves.jpg,-1.0,0.7546254850999503,3,3,6,4.0,106
39,40,Respond Naturally,JuniorMints_4_1box.jpg,-1.0,0.7937639200758895,1,3,3,5.0,106
40,41,Respond Naturally,FrozenCorn_4_2cups.jpg,-1.0,2.0900703744296147,3,2,5,4.0,106
41,42,Respond Naturally,FrootLoops_6_2Cups.jpg,1.0,0.9950486962902688,6,6,1,6.0,106
42,43,Respond Naturally,Twizzlers_2_2.jpg,-1.0,0.9490945749762432,1,4,1,4.0,106
43,44,Respond Naturally,FrozenCorn_2_0.5cup.jpg,-1.0,1.6196761590226745,2,3,5,4.0,106
44,45,Respond Naturally,Twizzlers_4_8.jpg,-1.0,0.9108730261004894,3,3,2,3.0,106
45,46,Focus on Healthiness,SunChips_4_20Chips.jpg,-1.0,1.536291982606599,2,4,3,4.0,106
46,47,Focus on Healthiness,Cauliflower_2_3chunks.jpg,-1.0,1.7862161456346255,1,4,5,1.0,106
47,48,Focus on Healthiness,SlicedTurkey_2_0.5slice.jpg,-1.0,1.3921415790737228,1,3,4,5.0,106
48,49,Focus on Healthiness,Celery_4_0.5bunch.jpg,1.0,0.9882221760990432,2,4,4,4.0,106
49,50,Focus on Healthiness,DriedApricots_2_2.jpg,-1.0,1.080526319990895,2,3,4,2.0,106
50,51,Focus on Healthiness,BBQCrisps_6_1cup.jpg,-1.0,1.895005707729979,2,6,3,5.0,106
51,52,Focus on Healthiness,YorkPeppermintPatties_4_12.jpg,-1.0,0.7556213442871922,2,5,2,4.0,106
52,53,Focus on Healthiness,Starburst_3_5pieces.jpg,-1.0,1.2926859516855984,2,3,3,5.0,106
53,54,Focus on Healthiness,Tuna_2_1T.jpg,-1.0,2.1145451891420635,1,1,4,2.0,106
54,55,Focus on Healthiness,RiceKrispiesCereal_3_2tbsp.jpg,-1.0,1.2390022135273284,2,3,4,4.0,106
55,56,Focus on Healthiness,FrozenOkra_2_2pc.jpg,-1.0,1.4555963123843867,1,2,5,1.0,106
56,57,Focus on Healthiness,SkittlesSour_6_0.5pack.jpg,-1.0,1.1040372068728177,5,4,1,6.0,106
57,58,Focus on Healthiness,ChipsAhoy_4_2cookies.jpg,-1.0,0.7041103638921413,3,4,2,6.0,106
58,59,Focus on Healthiness,GreenGrapes_1_1.jpg,-1.0,1.7503378451583558,2,3,2,4.0,106
59,60,Focus on Healthiness,RaisinBran_3_2tbsp.jpg,-1.0,0.7596640821275287,1,2,2,2.0,106
60,61,Decrease Desire,NatureValleyChocolate_4_2bars.jpg,-1.0,3.255455700374569,1,4,3,5.0,106
61,62,Decrease Desire,AlmondMilk_4_1glass.jpg,-1.0,3.649200119514717,3,3,4,4.0,106
62,63,Decrease Desire,FrozenBroccoli_2_3chunks.jpg,-1.0,3.8268619117075104,1,3,5,4.0,106
63,64,Decrease Desire,SkittlesSour_6_0.5pack.jpg,1.0,2.482152937513547,5,4,1,6.0,106
64,65,Decrease Desire,SlimStyles_6_2c.jpg,-1.0,2.12273358642733,3,2,2,2.0,106
65,66,Decrease Desire,Mackerel_1_1fish.jpg,-2.0,1.908213600248928,1,1,4,1.0,106
66,67,Decrease Desire,IceCreamVanilla_4_3scoops.jpg,-1.0,2.55326093278336,3,4,2,5.0,106
67,68,Decrease Desire,CannedArtichoke_5_1can.jpg,-2.0,1.6805165125028907,1,1,5,1.0,106
68,69,Decrease Desire,DriedHerring_3_4fish.jpg,-2.0,2.6070535054445827,1,2,5,1.0,106
69,70,Decrease Desire,CornFlakes_6_2cups.jpg,-1.0,2.8593965429745367,3,3,2,5.0,106
70,71,Decrease Desire,AllBranBar_3_1bar.jpg,-1.0,1.6287745999743493,1,2,4,3.0,106
71,72,Decrease Desire,SlimStyles_2_2Tbsp.jpg,-1.0,2.0782477896086675,1,3,2,2.0,106
